time,acc_x,acc_y,acc_z,gyro_x,gyro_y,gyro_z,label
0.169928,-2.661077654608877,4.663101199008937,8.61054093674799,-0.2596945465,-0.4945313334,0.021435339,0
0.179928,-2.63099331794502,4.616355225008864,8.645193746042331,-0.29086627381799623,-0.5507334499222588,0.03746537334916843,0
0.189928,-2.6048321874057767,4.491863261001892,8.681713052920518,-0.3220496366728685,-0.6152480310990238,0.045242147994525896,0
0.19992800000000002,-2.5803413828727217,4.433304886558311,8.710301266232845,-0.33374353628043824,-0.6803304613658268,0.05602177043859664,0
0.20992800000000003,-2.555787752046813,4.478971140759961,8.700886940643427,-0.3341743957491212,-0.7126268142046471,0.07674857414682759,0
0.21992800000000004,-2.579429183257671,4.451491229771721,8.703828668605501,-0.3307502928886056,-0.7338858458721914,0.09192673924341042,0
0.22992800000000005,-2.624049863596116,4.409766362968825,8.792484151933168,-0.34263377417331947,-0.7940219287436215,0.10946543223633413,0
0.23992800000000006,-2.6625926815946217,4.446887585314841,8.911336176294522,-0.37995104388540857,-0.8759890087679287,0.12285031804612556,0
0.24992800000000007,-2.598401640775696,4.5111233090355585,9.04716322931315,-0.4814405015512858,-1.0125036566314156,0.16381936119837687,0
0.25992800000000005,-2.430018873948012,4.5802668905082164,9.174339222286825,-0.6300228207999415,-1.1944171655512874,0.21822856399999047,0
0.26992800000000006,-2.310576993046414,4.558684708464342,9.158918174612948,-0.7987222193874907,-1.3708780281258972,0.26158468003912366,0
0.27992800000000007,-2.1659502625067013,4.396589952001786,8.974208902966636,-0.9504868030986666,-1.4693503160944137,0.30513223724104205,0
0.2899280000000001,-1.9661380135758952,4.201194661046513,8.644570748482566,-1.0346683576923814,-1.4789795939088648,0.3407667441769426,0
0.2999280000000001,-1.722007681950994,4.0147207869288835,8.248848845833363,-1.0192565748535856,-1.3892023118122498,0.3156827252401889,0
0.3099280000000001,-1.3580967225310183,3.7318033733670912,7.925397733168308,-0.9143871828207661,-1.204376142263445,0.20755780516747926,0
0.3199280000000001,-0.9984929757156344,3.4076085327671284,7.722102452625497,-0.7979520586889773,-0.9859803599858488,0.15152577660863825,0
0.3299280000000001,-0.7336402835953365,3.2422621635705173,7.750848799829085,-0.7269414697690034,-0.8271658757204766,0.12227221226645392,0
0.3399280000000001,-0.4937292275756403,3.304439151931885,7.996821105808662,-0.7221394792125784,-0.7493394123905578,0.10306728741750795,0
0.34992800000000013,-0.18849276331257533,3.4375436972246027,8.346940430763949,-0.7983575520161865,-0.7921699915949112,0.11479938205449225,0
0.35992800000000014,0.16873405746001421,3.39591209606782,8.59346329379315,-0.9163018784544635,-0.862299942244214,0.1501470901854088,0
0.36992800000000015,0.655041867290625,3.186799599566929,8.445369516812146,-1.0181487645082528,-0.8100157519104053,0.1822087161785924,0
0.37992800000000015,1.233152945896362,3.055373677937848,7.956915153008358,-0.9976167954254976,-0.7341465197610348,0.1622914828465335,0
0.38992800000000016,1.7336260943583626,2.9345296515492967,7.408396260591592,-0.9393337446058748,-0.4996197858694806,0.19009208957662643,0
0.39992800000000017,2.040355768629684,2.617174380827981,7.0644197571484035,-0.8030408225093099,-0.1370497952368641,0.4337480961578938,0
0.4099280000000002,2.1600778737851822,2.424958662258441,6.915119874253658,-0.6946818723508549,0.37209588298240803,0.7661082363396969,0
0.4199280000000002,1.8813401133732957,2.3396420103071676,7.083725830212956,-0.6765619493658798,0.34585086089629336,0.8316317891270696,0
0.4299280000000002,-1.0659038599572692,0.4845935572381814,8.807253388074159,-0.9191993897289029,-0.33635391894331146,-0.2655935876879084,0
0.4399280000000002,-5.483322462095884,-2.300973745893265,11.151955025679314,-1.273934904222994,-0.7899212659541672,-1.5791530879401854,0
0.4499280000000002,-3.956554206699208,-0.5358520288628492,9.937520312772028,-1.291442295251294,-0.15549287407394674,-1.6774825087694207,0
0.4599280000000002,1.202902003231419,3.425991061559745,6.8473468115977125,-1.1596741588826662,0.6577866510128335,-1.2022302714155269,0
0.46992800000000023,2.689414753739034,3.76700566473503,7.038718039922362,-1.1234905458133462,0.8444384545503107,-0.8148788165910875,0
0.47992800000000024,1.7852367345736724,1.8635573322116965,9.095467004238085,-1.2001775054527462,0.8164115311188516,-0.796979652207301,0
0.48992800000000025,0.7392507180311609,0.48808586685278693,9.480097986824674,-1.238002937825738,1.2189317896140732,-0.8747006386397104,0
0.49992800000000026,0.5612556510703992,0.9601290938764098,8.627473865731293,-1.2161810705773897,1.881282871884479,-0.9086834774816142,0
0.5099280000000003,0.7554162502435768,1.536443077590335,8.946000863736895,-1.3180730864080714,2.396869811288062,-0.9126927397773008,0
0.5199280000000003,0.47571701567596103,0.857289754432788,9.998878678201992,-1.5302640953947273,2.660344315762357,-0.900851222231145,0
0.5299280000000003,-0.10623184870627471,-0.22636277221528803,10.072573191428068,-1.6694697473945859,2.7997991669908413,-0.8513972294011336,0
0.5399280000000003,-0.47573320773241856,-0.639380222720878,9.735824438227294,-1.7060492391851048,2.690493461697513,-0.7748607187974156,0
0.5499280000000003,-0.9037557959967444,-0.6883913987915762,9.853317613868345,-1.588399876703411,2.0858657028364473,-0.8597343208308176,0
0.5599280000000003,-1.4279039405180833,-0.5076060910665702,9.447798336041078,-1.21663440981423,1.1470338547426988,-1.1537820982195819,0
0.5699280000000003,-1.4460707709288785,0.17496886624445504,8.248114330912424,-0.6159529029396683,0.4221669735557033,-1.4284348326892524,0
0.5799280000000003,-1.1307082813310716,0.5516078558416587,7.549059518514543,-0.043174970035716076,-0.16275247030085432,-1.6468780158022174,0
0.5899280000000003,-0.9220295020775376,0.13402987904649905,8.14987363484069,0.3567041771447859,-0.8346700864855628,-1.7993947774053836,0
0.5999280000000003,-0.47420703944795106,0.029081502602242917,9.353858023353583,0.5993645686932453,-1.3826978932515812,-1.8591974831918392,0
0.6099280000000004,0.13126761523642616,0.3239893831591223,9.802267698253978,0.7264586283090778,-1.6643550930416422,-1.8834914054039849,0
0.6199280000000004,0.6718354252104534,0.7209399398934604,10.111911701489467,0.703023500905237,-1.9894604122184392,-1.822569891351192,0
0.6299280000000004,0.9518247737953182,1.1864195608928365,10.818646822515941,0.6441652438934047,-2.1037511409462226,-1.638332542912849,0
0.6399280000000004,0.8105388085322173,1.0043856717623392,10.290386559635596,0.6149894691654574,-2.051040597997208,-1.4120675661806685,0
0.6499280000000004,0.24205038870848594,0.4632316053090568,9.203076406487234,0.5792548248858985,-2.0726658183381015,-1.108108759246834,0
0.6599280000000004,-0.411831834490876,0.2552215199012806,9.342407201116563,0.3854420263079885,-2.584075347803611,-0.7777357967542098,0
0.6699280000000004,-0.27065847649809255,0.27669016943589436,10.366337192906213,0.0493101906122308,-3.3989385519073094,-0.4230207573439779,0
0.6799280000000004,0.17867313849914324,0.797110537466854,11.0235286073486,-0.20255427851161895,-3.3624776260015805,-0.043951964571627866,0
0.6899280000000004,0.2724961501012672,0.7416214355344272,10.225563323381781,-0.46624192696938815,-1.229794558888734,0.2415645729939166,0
0.6999280000000004,0.5443008695383584,-0.15815665932802903,9.510751046915004,-0.46599580474192853,-0.7380306646308847,0.4727594301384559,0
0.7099280000000004,0.1808851262288088,-0.40000679822132523,10.94298972277069,-0.1933579913936691,-1.6870230764539138,0.6064255295989028,0
0.7199280000000005,-1.1045600626813632,-0.190530557575446,11.502324734636423,0.09215285924602841,-2.421062535212776,0.8176028138222126,0
0.7299280000000005,-0.9938922316203324,-0.5852471961626995,10.755828985682609,0.35251025709043127,-2.7427365574015057,1.1891568419266443,0
0.7399280000000005,0.6232118428368032,-0.5474920123734852,10.0300990770448,0.6507712927478088,-3.3152986919324094,1.6977927860800972,0
0.7499280000000005,1.6831382919721545,0.09136170558611065,9.710313126639438,0.8722381332574398,-3.941728879695648,2.3690037527362913,0
0.7599280000000005,2.2897020893833235,0.5417191868126503,9.780965576768768,0.9032425318386043,-4.3572163550466305,2.9721218268131753,0
0.7699280000000005,1.5328284678012936,0.5652593180909146,10.278350171880517,0.7420889504988171,-4.813480068209638,3.249805932943709,0
0.7799280000000005,-0.1850852205464282,0.1455476002878237,10.785420665746203,0.5682300960484279,-5.226275674183386,3.234628907295115,0
0.7899280000000005,-0.2658251022797462,0.04603903227871958,10.363054141992155,0.5556815034813191,-5.5793074798707485,3.201198399931978,0
0.7999280000000005,1.400866126783189,0.7038641258096596,9.46257975470678,0.6951478048255073,-6.163848174799638,3.2384270823211185,0
0.8099280000000005,2.644366756229683,1.2071687505304238,9.736712426490715,0.9422297815142984,-6.862089502000439,3.2062371061974066,0
0.8199280000000005,3.1819159159869876,1.14125875680547,9.99901388639121,1.2909043001158982,-7.341750334129899,3.056039986766746,0
0.8299280000000006,3.943511432881734,1.1647449769926543,9.488237550015794,1.6286753263147575,-7.331736543921804,2.8259623719596485,0
0.8399280000000006,4.9558497980285505,1.6410378314182634,8.939525754647397,1.7307104167299079,-6.569654374332184,2.660662947451442,0
0.8499280000000006,5.979610077665999,2.2737965359819103,9.082539444936895,1.3775850423874199,-5.567766294048347,2.6529231559780904,0
0.8599280000000006,6.989041034888283,2.8524245477338788,9.280123517013873,0.7630168005923117,-4.4839783906467465,2.6754482199727097,0
0.8699280000000006,7.534092752811193,2.907399997033139,8.26008765404031,0.15001656639777183,-3.2769546993756196,2.5850563375011864,0
0.8799280000000006,7.936313780875531,2.57693456345468,8.162019174891977,-0.3537492656240381,-2.227116944193566,2.457515709624955,0
0.8899280000000006,8.375584873516441,2.6042896559387545,8.709342936893421,-0.6872153478291477,-1.4498330500990502,2.3637264482772578,0
0.8999280000000006,8.469831354227086,2.6920547924743246,8.751857627054537,-0.8674492376322595,-0.9179761927678405,2.3213409674350585,0
0.9099280000000006,8.353200177966112,2.5186872535848424,8.998079016136042,-0.9097031725085855,-0.5634761310759363,2.254992657054377,0
0.9199280000000006,7.9033066084534,2.236461325396161,8.572844906179894,-0.845355046582723,-0.31929908124648015,2.0882727299059627,0
0.9299280000000006,7.308659373507136,2.038034102576187,7.722320112612329,-0.7244104080768462,-0.2691734224372973,1.8842646939687095,0
0.9399280000000007,6.90989272128994,1.885483926413531,7.4903536597975116,-0.5733944756355575,-0.4458024290385122,1.725875494529772,0
0.9499280000000007,7.008723683469002,1.6624171895540316,7.487081865778908,-0.41885579257472544,-0.6868631588033245,1.6280722511350132,0
0.9599280000000007,7.34637033030357,1.4674516228705408,7.437279992298717,-0.29734212782305314,-0.8350661995090656,1.5787025057183866,0
0.9699280000000007,7.43481437338873,1.242830999826056,7.421700625768447,-0.2116128522568313,-0.8393593747911408,1.5619880084127984,0
0.9799280000000007,7.426467322068157,0.9695408660538252,7.40054440807468,-0.15259522352752866,-0.7573194704650775,1.5800728625341,0
0.9899280000000007,7.499988420895314,0.7512085659245067,7.418873976343286,-0.09036639707128476,-0.7089984429983938,1.6206216888261948,0
0.9999280000000007,7.547057179913606,0.6344039207064095,7.2894725224122965,0.008501619077568509,-0.7527117846325461,1.6461289177381246,0
1.0099280000000008,7.289391224990764,0.6097837410886567,6.890490816469134,0.1572359722633231,-0.9144727923938669,1.6318728294264169,0
1.0199280000000008,6.872610349789254,0.5130075137983273,6.536263211859527,0.36455416922547873,-1.2084741803766332,1.6018196669173905,0
1.0299280000000008,6.715291715406902,0.27447067328325936,6.350684512029607,0.6409821513395981,-1.5741014811556668,1.601489141569255,0
1.0399280000000009,6.894829548664582,-0.00321190956336017,6.024028411335752,0.9944865381878858,-2.0072492900560825,1.6617708621542524,0
1.0499280000000009,6.994798761509522,-0.3730450046288334,6.037484599339358,1.423175597664563,-2.5919555638856355,1.792643366565059,0
1.0599280000000009,6.81944684958127,-0.9770408945051383,6.316693934342439,1.9214664250765368,-3.338171454810573,1.9868960722525078,0
1.0699280000000009,6.661582256447395,-1.5276063344998432,6.348542727982924,2.485994633850452,-4.14443022042831,2.2449045890189874,0
1.0799280000000009,6.634241697445189,-1.8244175061323034,6.073479053320232,3.0963556922422533,-4.900996499195164,2.5365535211495303,0
1.089928000000001,6.704436683465452,-1.885508234787491,5.559206249276361,3.7092415053274035,-5.539596698343311,2.8100308976345856,0
1.099928000000001,7.092865864498849,-1.766137773162596,5.008611762718022,4.262025818732607,-5.933885342287507,3.0107775422093654,0
1.109928000000001,7.882384138151828,-1.5218839133994229,4.408704827026665,4.682196087146086,-6.054436213964095,3.095406043268852,0
1.119928000000001,8.503886031790456,-1.0353783091667912,4.212860086566698,4.905799633462202,-6.004046849531128,3.109195432479756,0
1.129928000000001,9.147661225821905,-0.6014041242435686,4.501508418457307,4.9011820537390465,-5.835741341783894,3.128385053379971,0
1.139928000000001,9.855415307340216,-0.4319418879778664,4.510924173506315,4.702647731445473,-5.548725865535708,3.1681665709901945,0
1.149928000000001,10.330616857793325,-0.2554650847950918,4.022923993936044,4.395899295830085,-5.129565316821045,3.192009719484936,0
1.159928000000001,10.304926800061239,-0.16014430117996964,2.876232084417337,4.066101519093033,-4.578921480254794,3.137557529466925,0
1.169928000000001,10.222667167975054,-0.10218137256282478,1.2923563132343356,3.7528077759754432,-3.961285363393962,2.9653441900906277,0
1.179928000000001,10.236513486379202,0.22386545793819396,-0.1139361824046285,3.4462323182084122,-3.330097566916711,2.6859319078799127,0
1.189928000000001,10.078554328876992,0.5307839034802269,-1.1309336007686293,3.124959602305628,-2.7311860469132645,2.3166636271138197,0
1.199928000000001,10.092109350519186,0.5275697891814155,-1.7715474663426367,2.7930035122183576,-2.2652952641251263,1.8685697689998053,0
1.209928000000001,10.185571897254103,0.23926976972566483,-1.7945416163728545,2.4673587428826522,-2.00866146392333,1.404260493378755,0
1.219928000000001,10.128909240186228,-0.2236720541448285,-1.5339462568661932,2.1693527872590614,-1.9054944491369215,1.017955384014689,0
1.229928000000001,10.029208243881406,-0.7849621686807565,-1.5009937034177347,1.9223550607440882,-1.852925689298053,0.7592203696142352,0
1.239928000000001,9.777240975641332,-1.344623338941291,-1.6338284793770705,1.7180015867869163,-1.7952786861277565,0.6190816065260588,0
1.249928000000001,9.388502905283678,-1.9871423602016132,-1.7706949020253615,1.5334628314339456,-1.721935704623535,0.5526280831611395,0
1.259928000000001,8.78111356975544,-2.6670309688307863,-1.7710634397990133,1.355277505322067,-1.6536181312206357,0.5006924334915186,0
1.269928000000001,8.195264449606373,-3.4050535944530615,-1.713636301561783,1.1210335332226649,-1.6738055849517661,0.43535242099580174,0
1.279928000000001,7.916720013376782,-4.1973135024706325,-1.4567966721580439,0.8425871039309579,-1.8031385060000185,0.400332327405111,0
1.289928000000001,7.8440632538061354,-4.4145758854864185,-1.3861986909894626,0.6153555657227634,-1.947697723571665,0.4497823332565161,0
1.299928000000001,8.03385776465082,-4.197175648040999,-1.7000704312325943,0.4516952235931587,-2.0460526229425557,0.5247525759320205,0
1.309928000000001,8.240988943182074,-4.217055321841955,-1.9320740638042475,0.351482860620727,-2.0657780894532585,0.5119205629172136,0
1.319928000000001,8.162613875357618,-4.301849018730881,-2.0844716901486713,0.32593975188759405,-2.001196793302466,0.38581320395216606,0
1.329928000000001,8.354319663407344,-4.197306681121663,-2.3294009312126556,0.3573956085666685,-1.8981098677302919,0.18360256885603043,0
1.3399280000000011,8.656074498324253,-3.8869305076792644,-2.365110891625812,0.4205003621479061,-1.792154480165987,-0.0366003064624302,0
1.3499280000000011,9.029061437194489,-3.5757917533385353,-2.1926931392605047,0.4795736619618029,-1.6539018565489052,-0.19299344778498972,0
1.3599280000000011,9.459119119844125,-3.4011509200269536,-1.956268774338114,0.5063600411540207,-1.4388526390111143,-0.24566146217624632,0
1.3699280000000011,9.662586791247017,-3.3937747568184586,-1.5663777469710238,0.4832109528896487,-1.1395076702486504,-0.1997816539285267,0
1.3799280000000012,9.68227075064996,-3.416958432663264,-1.0674825446312413,0.3702824770855298,-0.7404166083174802,-0.07229018876576288,0
1.3899280000000012,9.260474742546196,-3.5634872451274915,-0.47459897090603675,0.11427606940615853,-0.27485359541040777,0.07726977624464172,0
1.3999280000000012,8.78844252041423,-3.787769127254816,0.09768224629518568,-0.27550254152717285,0.1289600776913228,0.20708697223304637,0
1.4099280000000012,8.672431802515652,-3.909255668206671,0.4904401859715061,-0.7135939818060149,0.40926698553159374,0.32427881951568194,0
1.4199280000000012,8.889268156901672,-4.321644880693374,0.5061390831471453,-1.0758716050333077,0.6075082101811778,0.4273441031709341,0
1.4299280000000012,8.903507938944452,-5.063417475130003,0.466568744286386,-1.2265421844041295,0.7091519487282625,0.4899374506393427,0
1.4399280000000012,8.465542895024784,-5.846662687490412,0.9240806272730787,-1.059465772639674,0.7413551937238257,0.5418831902191785,0
1.4499280000000012,8.325143860579972,-6.818995835686237,1.6306890641876601,-0.6091870715283557,0.7728263363733565,0.7122093232995637,0
1.4599280000000012,8.12148035854815,-8.009877726401152,2.011414891087075,-0.06233896382896845,0.6638642822605427,0.985564819741032,0
1.4699280000000012,7.839853805958904,-8.590825456885385,2.421240850202318,0.4664406964372912,0.24718018234762584,1.1391021420265568,0
1.4799280000000012,7.745058538236583,-8.495558134698198,2.981279848340409,0.9202457842035026,-0.45840607871956957,1.1702462166495604,0
1.4899280000000013,6.818988865808221,-7.813907492219479,2.544884928533974,1.2787555839376061,-1.223405008535933,1.283323796195372,0
1.4999280000000013,6.752344583935711,-6.58479014759797,1.7029604205658497,1.5587929459743073,-1.9639414319394275,1.5384296768181742,0
1.5099280000000013,7.921947532613385,-5.0034575674823545,1.568885949403382,1.7686639042843555,-2.699710113794563,1.9581371739287405,0
1.5199280000000013,8.712172285809498,-4.365313150336636,1.3930542288004182,1.9193727546941008,-3.2719072666050075,2.4535225999456434,0
1.5299280000000013,8.747368801241922,-4.39285491931009,1.0695125355231894,2.017546346796323,-3.6232059306180946,2.951104269512534,0
1.5399280000000013,8.445909605368772,-4.508299770189502,1.0005849604207573,2.0722196462670093,-3.8583579824066723,3.434102607267237,0
1.5499280000000013,8.075198494551657,-4.607690216101993,1.0480199619479311,2.0876224408864803,-4.120302817824642,3.906108521428805,0
1.5599280000000013,7.502518184986355,-4.68911618157191,1.1511156192803045,2.082506632798515,-4.546188624427458,4.353961122259029,0
1.5699280000000013,6.658910225642982,-4.898869373251108,1.197214256248628,2.153322039181497,-5.293078701214116,4.71834275401582,0
1.5799280000000013,5.197001360040992,-4.924885188203115,1.0774027598700782,2.301078586090814,-6.134087160003874,4.932461470006407,0
1.5899280000000013,4.152600954462291,-4.578854809606017,0.3626051832760734,2.1276195098622823,-6.667019001328912,5.041906179856745,0
1.5999280000000013,3.9411289068333937,-4.931354635260446,-0.4377021846827243,1.2118591744401943,-6.805775656211826,5.041211838391235,0
1.6099280000000014,3.2725927659362295,-5.77312417087928,-2.8717984953350792,-0.12263304051736984,-5.722794570242229,4.844846505292856,0
1.6199280000000014,1.6127261030058548,-5.5828429893118425,-7.526478633683951,-1.0490095541574163,-2.723240468020843,4.281578185293619,0
1.6299280000000014,-0.6179908030925267,-5.764897062020705,-15.675170783187415,-1.032436757868429,2.0021616412484926,3.3069463578634486,0
1.6399280000000014,-2.197686524026964,-6.89897624586698,-19.47438585707085,-0.5126515145819502,5.8055877852445885,2.310012310368362,0
1.6499280000000014,-1.1420333306901025,-6.345710407472521,-11.401113629900987,-0.1959122320585293,7.105499541818162,1.6450708152819613,0
1.6599280000000014,-0.05112435614289934,-6.057789282157495,-4.399296146953369,-0.006179375895400421,6.461775720542986,1.1596397543184234,0
1.6699280000000014,0.3463506863397145,-6.986094918017291,-2.0942813950264654,0.37664385891081675,4.457848691101815,0.7532194835265228,0
1.6799280000000014,0.9336627332009972,-8.516856875022714,-0.9391200376620223,1.0863912465491605,1.723746389765611,0.4510395935121703,0
1.6899280000000014,1.7959213418316353,-9.843551402107055,-0.4667325602040715,2.069097858380302,-0.6460569201905642,0.3191050541373021,0
1.6999280000000014,2.947725823395979,-10.65790397796232,-0.8617062594367424,2.912581691833391,-1.8699170836822163,0.3144136128610822,0
1.7099280000000014,3.7270397304751457,-11.286309879369487,-2.1832635881178044,3.2473108611531667,-1.7589833981846419,0.48460385846792275,0
1.7199280000000015,5.077650214090554,-14.159743326560829,-3.027880714843488,3.0739185741008197,-1.263255446173524,0.9966758924106321,0
1.7299280000000015,6.0452375679076376,-19.226921223494948,-2.440175815081382,2.674042016549307,-0.4293955382776759,1.669115590306578,0
1.7399280000000015,7.009171336490769,-22.189221457684724,-1.1898196659381781,2.2713378176619248,0.4644635822108155,1.9780503836207273,0
1.7499280000000015,7.242606710292172,-23.150283670102564,0.6621819431914091,1.8885220673632455,0.9657381645249948,1.809532526175702,0
1.7599280000000015,5.891974658079417,-21.726031820156624,2.1814581599788183,1.458901917433965,1.074317562376556,1.5223871122537835,0
1.7699280000000015,3.4175834539033905,-16.910656561013198,2.8765043398562464,1.0320143438460634,0.7753787316042716,1.4044570699388728,0
1.7799280000000015,1.562333564632502,-11.851145950940907,2.839141964840299,0.7065117179604744,0.06036422024369445,1.421037235425628,0
1.7899280000000015,0.5837288859147801,-8.397656577789034,2.1768231022381537,0.3873617310184502,-0.40304603422154545,1.4510796207591774,0
1.7999280000000015,0.11436336982586803,-6.363138918053893,1.0380535455832407,0.10598938863016052,-0.4691411918201084,1.4569297605497078,0
1.8099280000000015,-0.08325937865816865,-5.382253834627393,0.04121259229378771,-0.08914794113598017,-0.22693626960603708,1.4622075574053224,0
1.8199280000000015,-0.21640109781201128,-5.393372733560906,-0.5195715250626578,-0.1527262581878699,0.14492562890454125,1.51621100106071,0
1.8299280000000016,-0.2283864157344471,-6.16170680510248,-0.8387160701620381,-0.11535445412227355,0.5276902874495951,1.6573367075555965,0
1.8399280000000016,1.0891254642023103,-6.726099508413363,-0.8194721295131451,-0.04108185061230491,0.7221222706806789,1.8922825003266515,0
1.8499280000000016,1.8132196441281012,-7.2185452243308,-0.5596755644637069,0.007134171773040352,0.6294398141816301,2.009473425830639,0
1.8599280000000016,1.728179305919039,-7.75807120031234,-0.4929899895165241,0.015505413854275818,0.41469824439117847,2.0739450725278035,0
1.8699280000000016,1.3168599448058282,-8.409171970165447,-0.6525901740615795,0.016097755003655012,0.1425682286002931,2.090501039594018,0
1.8799280000000016,0.7914454531453264,-9.250603578575028,-0.8510662357750689,0.019073262120938843,-0.059928653002921176,2.0286576303722472,0
1.8899280000000016,0.5920760541201533,-9.934421625618555,-1.0701785021001244,0.06062740008939563,-0.16053290248142765,1.8675361314094414,0
1.8999280000000016,0.4190057018722517,-10.219053029691517,-1.1210657283794467,0.19597850698934763,-0.3228375944110069,1.6540126327917875,0
1.9099280000000016,0.19294508600489893,-10.241378056951515,-0.9630860443897615,0.4348894640373267,-0.5737631725516227,1.4457243693374828,0
1.9199280000000016,-0.11826965460022379,-10.064633160773123,-0.7288391539296482,0.7735218961041658,-0.8516040316086582,1.2469443237635658,0
1.9299280000000016,-0.5173162404604676,-9.691755733658974,-0.5774458864653855,1.1545673421449467,-0.9995655545022549,1.0617451319575812,0
1.9399280000000017,-0.7523286228642856,-9.275972384714006,-0.5105966790391724,1.5129983936040847,-0.9820987023796725,0.9104257523526949,0
1.9499280000000017,-0.9036608717689965,-9.046870104455921,-0.30702135410950726,1.7778172127770937,-0.8853588221916381,0.813210402943831,0
1.9599280000000017,-1.099872529621134,-8.808802711161494,0.07169621893644712,1.9211474163846292,-0.7618975132571219,0.8171636062542983,0
1.9699280000000017,-1.2701970723123603,-8.335009561721161,0.5607276494367287,1.9380747778645049,-0.5670893143618072,0.9135346787839891,0
1.9799280000000017,-1.3730146134748158,-7.3151794947675794,0.8034685920556913,1.8026554910353143,-0.1808171563639861,1.0680478265424234,0
1.9899280000000017,-1.4479990587551663,-6.112116587935923,1.4455422763594954,1.2835422260098759,0.35008193363694273,1.1380866170924742,0
1.9999280000000017,-2.012713196404244,-5.699802155588369,4.658549087030668,0.34195322191520294,0.6244842345317771,1.0372269717598335,0
2.0099280000000017,-2.629660413908672,-6.397208119167729,6.6880446518463295,-0.4434089000580202,0.48173278838139183,1.0390373575350444,0
2.0199280000000015,-2.7235178388659684,-7.837178125897774,6.753880575531351,-1.0429206828864528,0.2633215978685095,1.1119859012464215,0
2.0299280000000017,-2.819060687981401,-9.350044069103012,6.035709608864165,-1.5602998220937718,0.1332791199345541,1.145547937374449,0
2.0399280000000015,-2.8781998907180832,-10.910949144951386,4.782594165996206,-2.058118021906082,-0.06622423599939403,1.1239156476372436,0
2.0499280000000017,-2.925005264035862,-12.664338929530992,2.6744195734304705,-2.329794446942546,-0.7041566316917516,1.0715468470325833,0
2.0599280000000015,-3.303868110520241,-14.335426659594361,-0.08363346630869017,-2.0438220524028763,-1.8066478368115533,0.9727149998677033,0
2.0699280000000018,-4.031406822858201,-14.999549090305084,-3.118024158777548,-1.2429830208633088,-2.2956694089898173,0.7800312146179984,0
2.0799280000000016,-4.567838552300257,-14.258438224178418,-6.294327723551481,-0.2249772627520663,-1.5604667939359982,0.5165994961258238,0
2.089928000000002,-4.458521298238344,-12.513489873731992,-8.329937969303305,0.6864283292254916,0.08743524570867849,0.18011927309295653,0
2.0999280000000016,-3.6777482664596586,-10.71501423411161,-7.712266617593579,1.2647564810540997,1.5841584181609607,-0.21488218340159412,0
2.109928000000002,-2.210952324608126,-9.586892501447066,-4.168192372620715,1.4275970997798675,2.102584430186214,-0.49886940027860155,0
2.1199280000000016,-0.8785416898587078,-8.901964577790963,-0.2635010433530631,1.3280199715969072,1.9707520632941478,-0.5909818421545463,0
2.129928000000002,-0.22130980920807103,-8.457094176025048,2.3244413995825326,1.0611633629678507,1.5600521909410219,-0.5205638657298596,0
2.1399280000000016,-0.06433368504679436,-8.136491508178462,3.772896575541653,0.6999986551698213,1.0700101242963331,-0.3301048041387301,0
2.149928000000002,-0.07042524102738422,-7.953603610390202,4.297813677460308,0.3174569724368121,0.5569744002604462,-0.08552845641989182,0
2.1599280000000016,-0.13026206190492884,-8.205993620903895,3.7335342714925472,0.061645799104144125,0.11984014494363232,0.058460499499237956,0
2.169928000000002,-0.36484805256733727,-8.948430524651217,1.976750906493987,0.022661289829879083,-0.13964947283009502,0.08551625002706906,0
2.1799280000000016,-0.5843652084630282,-9.687135643314887,-0.1205862515861511,0.15470122396443994,-0.18212101655276336,0.08187914795289762,0
2.189928000000002,-0.6248757986957502,-10.072125976471233,-1.6973061352033976,0.3583948042448568,-0.02794249579474798,0.0818193217838427,0
2.199928000000002,-0.5065969445421863,-10.08723047790457,-2.3586449411362658,0.5166562042651416,0.2147024925658844,0.08443552968246869,0
2.209928000000002,-0.3671766663670128,-9.847052465010375,-2.0429287599033676,0.5484185318447863,0.398843290590529,0.10026246625362328,0
2.2199280000000017,-0.3539797121238989,-9.507923487723472,-1.1874260648614876,0.47819191796878135,0.46771517618700836,0.13817108862569077,0
2.229928000000002,-0.5141444702811124,-9.214732670903762,-0.35989652408899697,0.3795757837501546,0.43874441592015917,0.17416958794534232,0
2.239928000000002,-0.7850156506346879,-9.060740454650661,0.15937468115254927,0.3010574539711215,0.35321861705618973,0.19394134351950373,0
2.249928000000002,-1.0126038118700413,-9.062246592566892,0.36193329796991003,0.27069097483957366,0.23882634874947745,0.20255946245059617,0
2.2599280000000017,-1.077451268227243,-9.133862242692201,0.3110337889814103,0.2832682480406033,0.1443838573989392,0.20829298976890553,0
2.269928000000002,-1.0006244259705561,-9.270305946255313,0.1393780341443222,0.32178122732191144,0.10671060491660155,0.21064705607987638,0
2.279928000000002,-0.8488809406786795,-9.436640056379419,-0.04389043628721777,0.3701155573833935,0.11777551793966122,0.2031252620198248,0
2.289928000000002,-0.6797515971864214,-9.56174642214734,-0.14006589459941193,0.42395938577966935,0.1623273973588073,0.19930485195954425,0
2.2999280000000017,-0.5603603056843933,-9.618002761769866,-0.10905905090385654,0.4768453315633335,0.2253491042567765,0.19898973440569023,0
2.309928000000002,-0.5665410643778879,-9.602984110327226,-0.0105377370942321,0.5306264603185223,0.28998250754020416,0.2020130305757089,0
2.319928000000002,-0.7158284030391968,-9.53676405727451,0.09954335336215261,0.5865302204888831,0.3623149606219852,0.21164394371859654,0
2.329928000000002,-0.9646436523737125,-9.44320249439876,0.22339887962327176,0.6433859470961067,0.4071687176888665,0.22625107713665593,0
2.339928000000002,-1.288869863743045,-9.376134466217351,0.3168023802340136,0.6969147048675688,0.4643070635139485,0.2550173869331993,0
2.349928000000002,-1.586817130199978,-9.420590011636724,0.4513809662091911,0.7175857928824497,0.46082715023123494,0.27832063512066824,0
2.3599280000000022,-1.729729617300953,-9.54452213808113,0.6675991533528696,0.7151172826307818,0.4715353756111752,0.29405954523456734,0
2.369928000000002,-1.6749236128947436,-9.698965033530861,0.8603249564896664,0.6851371976609295,0.41189631329870063,0.2899815566234756,0
2.379928000000002,-1.3995336512801138,-9.899073958455642,1.0135801561512563,0.6506275331190978,0.2982056183783849,0.2874616574202884,0
2.389928000000002,-0.9703740801408793,-10.135562997676393,1.0227307067336608,0.631564683669406,0.17623126041479337,0.31134335563064214,0
2.3999280000000023,-0.4458099255875253,-10.456149830488334,0.8873307721175436,0.6402279178785627,0.10899888520298619,0.3648319042944214,0
2.409928000000002,0.061420402627279436,-10.85422427223423,0.6430300373751321,0.6550958864778166,0.08748576159399882,0.4187443555020396,0
2.419928000000002,0.40258062060643485,-11.252363743915666,0.431628287158299,0.6605527913545722,0.10714147180711552,0.45298196867462553,0
2.429928000000002,0.5344144364272984,-11.535562018912398,0.3520253014778374,0.6361836282230848,0.15957635693795694,0.4616478905685799,0
2.4399280000000023,0.4476471644819202,-11.610027932098102,0.3890834503504962,0.594860477847595,0.2726283779935198,0.4476265001473522,0
2.449928000000002,0.23146685091383656,-11.50853474119208,0.6580937703597342,0.5142465792756354,0.3250173031434176,0.4072197342903223,0
2.459928000000002,0.04566504902363047,-11.393911366947197,1.0892387698737078,0.4197177554326017,0.19329837434147798,0.35441587544746017,0
2.469928000000002,-0.03923744017136137,-11.508517210779766,1.421237651549645,0.3310844938756965,0.05944186709722327,0.2861447307571646,0
2.4799280000000024,-0.17101293004195353,-11.785766433382783,1.659879114379833,0.2434933046319916,0.000997431709098058,0.1920114401821017,0
2.489928000000002,-0.4107948450633672,-11.974119347270193,1.8475423648648726,0.16219326743967527,0.012434595172904834,0.08590421501939624,0
2.499928000000002,-0.7370067725479531,-11.979789264581948,1.9065832678019838,0.08053233243977857,0.07207770409182879,-0.0208463383930019,0
2.509928000000002,-1.1837916519004033,-11.789104202618715,1.8796327641747428,-0.04154743472186885,0.0998675867543029,-0.12922828529534372,0
2.5199280000000024,-1.6785791415731726,-11.42217252930185,1.7059215490886501,-0.17074941188584156,0.1354036334045359,-0.20261455642869547,0
2.529928000000002,-2.080735109619519,-10.975024768426941,1.3059595308777796,-0.26966865479061636,0.20990253283923793,-0.24345249433746705,0
2.539928000000002,-2.311205018240764,-10.66646662810405,0.9187227646100664,-0.3413767147385586,0.2826767533166965,-0.2929704001658583,0
2.549928000000002,-2.367123414696987,-10.521765586410442,0.8171966682845045,-0.40792447911398244,0.3387681714934622,-0.33988174179446906,0
2.5599280000000024,-2.3525566357980807,-10.435663749511688,0.9999708535200673,-0.4724456351602123,0.43115475720846946,-0.3884731925016669,0
2.569928000000002,-2.405247777334886,-10.313920637092338,1.3055992524394677,-0.5532382959057986,0.5397227222751992,-0.4412821325190995,0
2.579928000000002,-2.6067610824238776,-9.971863237404273,1.5431230628326962,-0.656807031221058,0.7337052262294386,-0.46052897762219225,0
2.5899280000000022,-2.979533261942463,-9.342059492037171,1.5750588238754766,-0.7920003039080841,0.9746913845486013,-0.4555570846251179,0
2.5999280000000025,-3.4496713819836127,-8.655679735088063,1.4402738437060358,-0.965773220005295,1.1753605132845673,-0.45861635694969727,0
2.6099280000000022,-3.9281826888551805,-8.154231794440603,1.2727015672715551,-1.1263772456452787,1.3344077989451284,-0.4992292125600845,0
2.619928000000002,-4.378653677428542,-7.797921888012489,1.0972672475399705,-1.2896410003984544,1.408918096030174,-0.532725722155562,0
2.6299280000000023,-4.7449129413546505,-7.514350684552559,0.9193845257084923,-1.4304004628618952,1.4775291773639971,-0.5620109739701336,0
2.6399280000000025,-5.007995448875962,-7.352530879667641,0.7342837877533419,-1.5481880224083222,1.5545026411345078,-0.5756874665496071,0
2.6499280000000023,-5.188593667771791,-7.3826931931043385,0.47483992829404614,-1.6408458877488514,1.6891617324392278,-0.581991594735843,0
2.659928000000002,-5.272399184329131,-7.702928630031026,0.12559229524529697,-1.724987836270312,1.8462846782892777,-0.6005706625367948,0
2.6699280000000023,-5.25452087420225,-8.33186007135874,-0.24778806620416696,-1.792816886831314,2.0036914859618595,-0.6681723974270936,0
2.6799280000000025,-5.14541264248532,-9.075729398614873,-0.5543611070456115,-1.8155586713209704,2.166040839316652,-0.7771689261373436,0
2.6899280000000023,-4.947413777249943,-9.744861828543701,-0.7477754219831375,-1.7573790693030913,2.2903958454415165,-0.9334142130413128,0
2.699928000000002,-4.647584746397535,-10.34748180034425,-0.7708172292264667,-1.6140074554813437,2.3569478487312616,-1.159184644505637,0
2.7099280000000023,-4.254634977695295,-10.965418824158352,-0.6952389011914278,-1.4127962990496061,2.3411962987191672,-1.4158246387294637,0
2.7199280000000026,-3.743070396907701,-11.595100876895094,-0.5836369556787331,-1.226189755896651,2.140077020028547,-1.6693800870683109,0
2.7299280000000024,-3.0741663701751127,-12.17612085005491,-0.3877569272367889,-1.0903557966334128,1.7425211514037526,-1.8818746238716444,0
2.739928000000002,-2.367392134265469,-12.529372108783766,-0.26660542090497713,-1.0103603703494244,1.2573837672154329,-1.9916352977277112,0
2.7499280000000024,-1.7424824903644092,-12.540557241182684,-0.33813350492718053,-0.9956385077559479,0.7927073370092617,-1.9906344219136407,0
2.7599280000000026,-1.175483266159726,-12.276508041889644,-0.5460620269220221,-1.049374764364285,0.3930982650663983,-1.9257516675559319,0
2.7699280000000024,-0.6892905198512906,-11.792281014864656,-0.7602185372458862,-1.1656198823348805,0.07193593077068983,-1.8363231300612282,0
2.779928000000002,-0.34513326905528685,-11.210403872553917,-0.9015135374606051,-1.3170829190611169,-0.174625654662272,-1.757519239790869,0
2.7899280000000024,-0.1355180033774584,-10.661710950342018,-0.9609249385379417,-1.4825889728512447,-0.37523014034166624,-1.7124465617955678,0
2.7999280000000026,0.006743517000339552,-10.16829707735556,-0.9392653532989131,-1.631454742377032,-0.5296078797735337,-1.701699654539715,0
2.8099280000000024,0.17313804541922573,-9.731757675352936,-0.9721790602594668,-1.727436659471511,-0.6574024562424748,-1.7246137548447538,0
2.819928000000002,0.39925904430376985,-9.383165147613779,-1.116527604727041,-1.7683103071334731,-0.8164921757164112,-1.774417899066497,0
2.8299280000000024,0.6319234507383975,-9.110617709864307,-1.2785982476607693,-1.75287234292281,-0.97667508435199,-1.8189634782572552,0
2.8399280000000027,0.8507773394910918,-8.879097665350193,-1.5626466884530772,-1.6896994352804644,-1.1081768067127973,-1.8310530063617825,0
2.8499280000000025,1.120791649983548,-8.64074874387569,-1.95612214330664,-1.5901113117027632,-1.1881827551114703,-1.8057884838489962,0
2.8599280000000022,1.4551135367415196,-8.363411380799835,-2.471574962193157,-1.465436137054977,-1.231812397666243,-1.7493950376182137,0
2.8699280000000025,1.803939195250408,-8.057212459899324,-2.9994864602197926,-1.315157459323619,-1.2623610843551112,-1.6497251745373998,0
2.8799280000000027,2.1222806697788204,-7.674851694560207,-3.452773932430503,-1.130670885697064,-1.2761561626873343,-1.4912341600735262,0
2.8899280000000025,2.3803947719021687,-7.2258551809556275,-3.8205094190193667,-0.9099517706251957,-1.283233991532596,-1.2766442555157291,0
2.8999280000000023,2.5221912431800972,-6.745254751274956,-4.0099304467181955,-0.67166964045917,-1.2814572431371751,-1.0245535190833388,0
2.9099280000000025,2.516334359678687,-6.269283519437842,-4.077404068252732,-0.4335685884697821,-1.2121582910965156,-0.7506412222647341,0
2.9199280000000027,2.3738637555992597,-5.872412083008479,-4.0955469427194195,-0.22829578996963254,-1.102230284587717,-0.49690252424830383,0
2.9299280000000025,2.103430961251433,-5.59527463352697,-3.943206348699881,-0.06806144616427379,-0.9693669615781713,-0.26181467126006563,0
2.9399280000000023,1.730764333998639,-5.422119716062719,-3.6351412368518137,0.048321092509547435,-0.8483290112720961,-0.0494021228888388,0
2.9499280000000025,1.2838556060390682,-5.27328629711887,-3.2436088782141685,0.1216854229790552,-0.7457752947055114,0.13421727836444755,0
2.959928000000003,0.748250025767549,-5.110312188541727,-2.8367028636481284,0.153202984763845,-0.6417734455347375,0.28952433916730874,0
2.9699280000000026,0.16755003636606547,-5.029026385457788,-2.561106390494581,0.15372276014629943,-0.5394686233540632,0.39012691171942737,0
2.9799280000000024,-0.3786292922235661,-5.13529990261227,-2.421287031522635,0.1449813449072331,-0.4254623774290938,0.4264967986956187,0
2.9899280000000026,-0.8402478541835935,-5.380086983768954,-2.489760431407825,0.15304170609640577,-0.3111246722176049,0.40783815975599486,0
2.999928000000003,-1.1284029705360028,-5.696326864999583,-2.713631369431201,0.18964716613959431,-0.24927404651198395,0.368821370084265,0
3.0099280000000026,-1.1231151663154832,-6.103251443333936,-2.984046097085737,0.26294094743189955,-0.2865064404668113,0.3557556725999846,0
3.0199280000000024,-0.7640124213280538,-6.6703662522182885,-3.332335187313341,0.3862404805767738,-0.34810808755927825,0.37517597794689916,0
3.0299280000000026,-0.1969016111061042,-7.426304085752876,-3.8522013782119497,0.5582343599315218,-0.3401672055859114,0.4084492484983692,0
3.039928000000003,0.4061647765249847,-8.295296691395594,-4.413188954763085,0.7568989194807183,-0.24507892856021754,0.44690937154828103,0
3.0499280000000026,0.9427983781177439,-9.204987036404919,-4.7003235283254075,0.9321595592930734,-0.12076196344819061,0.4916576761826202,0
3.0599280000000024,1.3823184815455818,-10.029858209314023,-4.5736434943497,1.0218826475593645,-0.04024925114655716,0.5272383359963785,0
3.0699280000000027,1.7769833791543908,-10.640488765462624,-4.149132838638775,0.9908285567410808,-0.02536558282578799,0.5418363071778233,0
3.079928000000003,2.1038095728464756,-10.933867514346542,-3.710966032452996,0.8376687339197033,-0.0755031286963185,0.5414734097200872,0
3.0899280000000027,2.328471909096531,-11.001468785833541,-3.5058201763968015,0.6024536602317542,-0.18285144675585904,0.5314169763676592,0
3.0999280000000025,2.4507494884503322,-10.989719793618017,-3.6679826157504247,0.3515021758241673,-0.31859711586882544,0.49152546264127495,0
3.1099280000000027,2.3800605673899398,-10.964244788235618,-4.221870878574089,0.15307474473068922,-0.3764458811317373,0.3932423661539586,0
3.119928000000003,1.9678743974092294,-11.015551766803073,-5.039883936211662,0.04404923931910406,-0.3396731176848349,0.23822846909414336,0
3.1299280000000027,1.4280149199991927,-11.10631463061866,-5.795621774798343,0.019879223241015702,-0.23943937475633784,0.07832470477419995,0
3.1399280000000025,0.9284231877339786,-11.07379356472899,-6.1405095406847465,0.04392721948112431,-0.15394691124483673,-0.05495076223677016,0
3.1499280000000027,0.4981689993159389,-10.764090217564208,-6.208707007868574,0.08506063118749439,-0.09022568536710814,-0.1280467646411266,0
3.159928000000003,0.1542959199736429,-10.25265827777055,-6.384290769571503,0.15126549818386278,0.022262641356050647,-0.09668233773201172,0
3.1699280000000027,-0.0008821477584783459,-10.139231763235776,-6.9777007095590236,0.32604416727517294,0.25930056805141233,0.041770454134046106,0
3.1799280000000025,0.13515200772843772,-10.93347219205577,-7.284950573346548,0.5943424726352936,0.5585106841624692,0.2473073832425759,0
3.1899280000000028,0.3265137085947653,-11.783489577720703,-6.656810762067541,0.8272302521101176,0.8569623467838856,0.5022420708149089,0
3.199928000000003,0.05031622624022161,-12.04005544191317,-5.492419698898561,0.9639084223138152,1.08048294611792,0.7907696280903173,0
3.209928000000003,-0.6959674754602317,-11.998536055328128,-4.128971352176775,1.041789574233423,1.0695700377916706,1.0686834160393988,0
3.2199280000000026,-1.5728041578019762,-11.776009600106141,-2.684273726830421,1.122607395427253,0.7971397196028844,1.2616551273700223,0
3.229928000000003,-2.47608550618716,-11.539602634048082,-1.5576717203260475,1.209284267468598,0.413717175456947,1.3193209566340487,0
3.239928000000003,-3.171093432127977,-11.107619659415247,-0.9399832274698567,1.267201325829748,0.12977835191252984,1.2412275655019895,0
3.249928000000003,-3.4768578134950814,-10.34439380581911,-0.7464193872028457,1.286878162574628,0.04273143010149034,1.0525556464432637,0
3.2599280000000026,-3.4350785897399008,-9.4261845397863,-0.6928745416043454,1.2733538339781683,0.15599064313965955,0.7862967876581864,0
3.269928000000003,-3.054626274486914,-8.649826969269807,-0.648009161744626,1.2227920454469565,0.48342679306249403,0.46617959206347725,0
3.279928000000003,-2.4077048805131893,-8.077869194949312,-0.6749684383445891,1.1432259817103108,0.8416994902587321,0.16714859579445532,0
3.289928000000003,-1.2126887221310538,-7.497940255384968,-0.21819549697476542,1.0742766309553717,1.0545636584476745,0.0014969509462237976,0
3.2999280000000026,0.20702146846708347,-6.971548939131875,0.5458743624331641,1.0735779675406187,1.1364406534194658,0.004710956367873581,0
3.309928000000003,1.2251831720792432,-6.572648216522159,1.292783900899516,1.1802019352966096,1.107144552226259,0.156039335559106,0
3.319928000000003,1.7585091181210974,-6.190031261426801,2.1239971731407605,1.3852286536507226,0.9951986485498581,0.40001719502393235,0
3.329928000000003,1.8697630754086554,-5.877057869791943,2.930122101691493,1.6029506537638738,0.832630948164075,0.6727122310111111,0
3.3399280000000027,1.6086187110758656,-5.804323076326238,3.6811313699314576,1.7285198827362735,0.6100451650373693,0.9261180141482661,0
3.349928000000003,1.040941892212544,-6.169854861170104,4.451759438712188,1.7258580921712174,0.34427459877902733,1.1516013556261921,0
3.359928000000003,0.11069638362722031,-7.127756007763212,4.919559756476235,1.5861968719660704,0.0827381449638375,1.3518755217961749,0
3.369928000000003,-1.1423830947177593,-8.361106029431006,4.944221972760345,1.3227075798923957,-0.16299674299591563,1.4963496098201536,0
3.3799280000000027,-2.2348597208384,-9.37150810962996,4.853296798034103,0.9944212580252263,-0.39649936370553407,1.5539012677121715,0
3.389928000000003,-3.0560733554286665,-10.397769665763063,4.526544472964107,0.6616513729810044,-0.5677508083275796,1.5070984512167795,0
3.399928000000003,-3.6328668905153045,-11.560057593258843,3.6609340210433925,0.3490920337634108,-0.49057043810260254,1.374046904629976,0
3.409928000000003,-3.993696901938515,-12.234866065922798,2.017778625132949,0.10655560703715544,-0.09427705935907238,1.1645844938783632,0
3.4199280000000027,-4.040324312240565,-12.006658250712158,0.42689805786900215,0.0004332970769564126,0.42453266731552225,0.9016210573127174,0
3.429928000000003,-3.808501956064918,-11.220947945620479,-0.47220373039486474,0.03314791637624356,0.8290366987503095,0.6415343792033088,0
3.439928000000003,-3.4582144837018887,-10.485251637256225,-0.8124132889425659,0.14759190567474204,0.9882147459148628,0.4454477362688242,0
3.449928000000003,-3.1318532626557225,-10.107623959537696,-0.9067474729529509,0.2927991366044046,0.9089918347240745,0.3236730820616611,0
3.459928000000003,-2.934776621272161,-10.04349451739783,-0.9183584703763984,0.42210773923152045,0.7454034485500908,0.24541544955528752,0
3.469928000000003,-2.894804441834464,-10.146766411468729,-1.0805154007657418,0.486312275750855,0.7083802111845827,0.209916079001106,0
3.4799280000000032,-3.2207243521941677,-10.048645201659438,-1.45268791285597,0.4858943064003084,0.8871892957267469,0.20684042787655776,0
3.489928000000003,-3.7434235597556986,-9.73481301636057,-1.5318362157457768,0.47994416364395714,1.1877109286026484,0.17165582633069554,0
3.499928000000003,-4.030226691893903,-9.589793308690382,-0.8697524926720719,0.5289993038331708,1.446434949045461,0.03558670053357346,0
3.509928000000003,-3.9201729491446153,-9.65944631439481,0.2627478988534171,0.6236980123262807,1.562692086095329,-0.1897299386851073,0
3.5199280000000033,-3.4500416533650826,-9.741998844310896,1.3374874606399623,0.7075392684362685,1.5436766314403616,-0.403493390094823,0
3.529928000000003,-2.647389033288782,-9.698093077692809,2.0335611226602817,0.74255110307682,1.449313880903762,-0.5135075865294065,0
3.539928000000003,-1.7635943028352847,-9.50851238005299,2.3144353187658413,0.7196217171924356,1.3308538440942654,-0.5160602088656895,0
3.549928000000003,-0.977381539827188,-9.275692071405109,2.310043604127992,0.6439843438854882,1.2164950284492202,-0.4581707324603703,0
3.5599280000000033,-0.34494028015402933,-9.221984775684602,1.9859491702113832,0.5290274581173411,1.1213042963199564,-0.3725931550035793,0
3.569928000000003,0.10422787533344686,-9.34523535264448,1.3502067040712986,0.4026709450993935,1.0544034615566327,-0.26843166355741066,0
3.579928000000003,0.38727233425135604,-9.449525793771203,0.541012555666569,0.31367623829020663,1.0249532442694211,-0.15081744144688322,0
3.589928000000003,0.4705215380209683,-9.443695922632386,-0.28170619814344877,0.30415798671445793,1.044851359447842,-0.030784146107243407,0
3.5999280000000033,0.3502650706329217,-9.334175508569864,-0.8876753762374104,0.3728736469261026,1.1023310012196823,0.06819585876343015,0
3.609928000000003,0.10506395982277647,-9.23849742456572,-1.1299414012025102,0.4876450793622554,1.1486328557623942,0.12477279612620096,0
3.619928000000003,-0.11957847709702692,-9.223778377509102,-0.9927050623324202,0.6091566393894042,1.1429022322554045,0.14194467817581963,0
3.629928000000003,-0.2261299067274584,-9.232809657779711,-0.5770650207132292,0.7052885303289719,1.0828628336708088,0.1373953263361469,0
3.6399280000000034,-0.24317279313559098,-9.287921831435398,-0.12123612273956828,0.7568238075628961,0.9872615024278412,0.12551401073220478,0
3.649928000000003,-0.21187058915783646,-9.33483021149833,0.19248258894538076,0.7680241169443254,0.8852605370023449,0.11809086185298462,0
3.659928000000003,-0.19475313812930622,-9.351775540352628,0.31727666402396476,0.7460593388680767,0.8053531406769819,0.12272584111904272,0
3.669928000000003,-0.21682923277958574,-9.309252862437422,0.16874307853841264,0.7049130262519374,0.7819545027204261,0.1355277270073989,0
3.6799280000000034,-0.3631034502750049,-9.23648130311264,-0.2554299139015181,0.6575640927874705,0.819954017907908,0.15055982280284078,0
3.689928000000003,-0.6235514623122806,-9.138733330533036,-0.6852283366099454,0.6006158992715951,0.8590373421816623,0.17635143773118955,0
3.699928000000003,-0.8780521060373736,-9.115922201050964,-0.6135149155940111,0.5514214162843538,0.846107514668924,0.22325317688660593,0
3.7099280000000032,-1.1345908184729137,-9.127175281025883,-0.31163411955657666,0.5478928595424231,0.8322735986790853,0.2862741272026325,0
3.7199280000000035,-1.199422665617029,-9.224552127543834,-0.13790204225565952,0.595661866466961,0.8543719505746139,0.33005427287454137,0
3.7299280000000032,-1.175174292034538,-9.412605544923386,0.011025159032743759,0.6660466225624389,0.8614965221306212,0.3523701725528819,0
3.739928000000003,-1.07313700294209,-9.55253308752006,0.3206784240112424,0.7280975205064991,0.8286510555201683,0.3724103880009178,0
3.7499280000000033,-0.9908459862404599,-9.693534791619943,0.5306517741278863,0.7539406297924648,0.7569295238833788,0.40032478000599175,0
3.7599280000000035,-0.8874683987129702,-9.849847899370761,0.5911505448600779,0.742931435351335,0.6861003173643615,0.4375889412929225,0
3.7699280000000033,-0.7442953914119422,-10.108457044009809,0.44460991280068063,0.6932681061231841,0.6376071353340231,0.4640156878653063,0
3.779928000000003,-0.6061701636738372,-10.48654528267403,0.20511948555727147,0.6142789005194138,0.621300436360341,0.46959344566070466,0
3.7899280000000033,-0.38879595178955845,-10.889583421558648,0.22756555986465854,0.5309454964173886,0.6208512340453136,0.45924737071629984,0
3.7999280000000035,-0.195657714965142,-11.177982689175396,0.3599145754704554,0.4721463696392962,0.6140303899662559,0.4271976514338896,0
3.8099280000000033,-0.04495186760803324,-11.406018407126814,0.5973076097714739,0.4458063894738319,0.5663364579911441,0.36984231138446744,0
3.819928000000003,0.037856336547637065,-11.49447714117183,0.7657276900740553,0.4494780995164042,0.5195282821766667,0.30154092466229143,0
3.8299280000000033,-0.03130267343469033,-11.356379941575026,0.6053060231365632,0.46091010009415906,0.5137075564222502,0.24462945790288826,0
3.8399280000000036,-0.16840076116451358,-11.031783181509063,0.2742831359103843,0.4689220274091218,0.5937428804833883,0.2187825150562555,0
3.8499280000000033,-0.4449476349554355,-10.652453830646408,-0.06642052136877125,0.4593923740868291,0.7417323374568745,0.22270484309364247,0
3.859928000000003,-0.771931974101408,-10.373096256987465,0.017766668311474776,0.4130185151786691,0.8003910109070532,0.23340565367058053,0
3.8699280000000034,-0.9144246504921147,-10.262435543511447,0.33570523992339607,0.33715607190967695,0.678661236644186,0.23421508976144237,0
3.8799280000000036,-0.8799816098829157,-10.434488743513848,0.4951740711799616,0.24195301473718014,0.5632457856065953,0.21149159274085977,0
3.8899280000000034,-1.0184954666725559,-10.862233961639674,0.8259034839629904,0.15739885751731988,0.5284394616071411,0.1483605905163833,0
3.899928000000003,-1.0906172962516998,-11.439824296351643,1.1269687694278459,0.062472052527489344,0.5179668583503537,0.025598975342853034,0
3.9099280000000034,-1.1175551628232154,-12.018465032544404,1.3253047406555698,-0.03274243691660805,0.5711574935173195,-0.13146477620959016,0
3.9199280000000036,-1.2463468533175746,-12.042550741513656,1.3811351337865903,-0.12397131626492058,0.6655074631426867,-0.26670946568713283,0
3.9299280000000034,-1.2491663854421022,-11.57731334184283,1.3193757832226718,-0.22474051571911585,0.715483932138001,-0.3670537151359026,0
3.939928000000003,-1.1411233113042885,-11.14835541284926,1.246739756474706,-0.3231036312656634,0.7077409241476508,-0.45455779689956466,0
3.9499280000000034,-1.0293762397337647,-10.881850554611594,1.2784506205225004,-0.4013680297586854,0.6524345179475277,-0.5371135909746646,0
3.9599280000000037,-0.966935344708417,-10.63653288954296,1.4727229845116658,-0.4641839994737285,0.5700179288830798,-0.5966398848403055,0
3.9699280000000035,-1.1048898184978888,-10.186553463744477,1.719154543408611,-0.5149184131643713,0.5590017021594078,-0.6074190926888806,0
3.9799280000000032,-1.6119408891968332,-9.659295041281071,1.7411170354553327,-0.6027277627303607,0.6766708623670551,-0.5879146017197279,0
3.9899280000000035,-2.420678198218668,-9.256076791240334,1.4781022976212728,-0.7498825682154537,0.8925025284761733,-0.5705473696760565,0
3.9999280000000037,-3.2172999708490875,-8.823576430283989,1.1943686387422314,-0.9511889929795009,1.1123287966410143,-0.5612273717525718,0
4.009928000000003,-3.8167445416108206,-8.364867899888582,1.0518767779657339,-1.1848771254752566,1.2771047804840976,-0.5571856136217738,0
4.019928000000003,-4.307594394789637,-7.933844572047741,0.9591752253161863,-1.4103038097931258,1.410565025076155,-0.5365086096783616,0
4.0299280000000035,-4.636967549823147,-7.544222859133998,0.8803285757840117,-1.604060820166198,1.5616851986835703,-0.49649974062617497,0
4.039928000000003,-4.9369572848240155,-7.243980380241675,0.6396148142470948,-1.75669707268245,1.7311279771107533,-0.44686254249589524,0
4.049928000000003,-5.1676670879279,-7.200757716040903,0.3566087357077586,-1.8674774455882517,1.9011238262797827,-0.4087146484855135,0
4.059928000000003,-5.309628623359983,-7.557647280002181,-0.008243626460179454,-1.953896127304384,2.052317270332342,-0.4193084138028833,0
4.0699280000000035,-5.290468705646087,-8.444979972584036,-0.35202566674193164,-2.0209663168726606,2.1675794127258534,-0.5248504460597659,0
4.079928000000003,-5.092055499184753,-9.405491435057549,-0.5441151282991549,-2.0428606296259093,2.2748893757091015,-0.7191085350628923,0
4.089928000000003,-4.893276192525084,-10.07163978515351,-0.5898988585625836,-1.9824986898881836,2.396436767234223,-0.9519466333187454,0
4.099928000000003,-4.7830731201779875,-10.576030692647572,-0.5840423263960369,-1.8413717425472054,2.556451103182256,-1.1806928085811477,0
4.109928000000004,-4.711038976313889,-11.222745319300987,-0.6092153141621351,-1.6735583796033717,2.6312770464907462,-1.3855860703018945,0
4.119928000000003,-4.477554641958032,-12.005611859490791,-0.4924848951728512,-1.5353871075485706,2.4831093424116766,-1.5810330146604783,0
4.129928000000003,-3.9603308140687243,-12.794900147908258,-0.20317063100736588,-1.4667261427253537,2.0757440033974053,-1.755172383941504,0
4.139928000000003,-3.35059992016665,-13.491972451638905,-0.11883409605808964,-1.4818713099170886,1.580857504961394,-1.8979503562938467,0
4.149928000000004,-2.8715251334621654,-13.967004137318245,-0.3474222331125992,-1.5819753000043788,1.0695561536853497,-1.9998490565386948,0
4.159928000000003,-2.4535531528641297,-13.935251286240549,-0.7105462605403707,-1.7229605953790395,0.6088932010064285,-2.0568566490512166,0
4.169928000000003,-1.862749255866846,-13.14192415137009,-1.123654836799736,-1.850024210056726,0.2500703853948359,-2.1108811867752486,0
4.179928000000003,-1.0591936123633388,-11.900647923664252,-1.6253408515887007,-1.9414280720614632,-0.01360436368933602,-2.1908872409331606,0
4.189928000000003,-0.18635865281269992,-10.59249038722881,-2.159092968437259,-1.971333539649048,-0.19973192486947852,-2.2623446867099264,0
4.199928000000003,0.605545780905932,-9.400343969778913,-2.8259194597689086,-1.906045928882557,-0.29733533352911934,-2.30339599240988,0
4.209928000000003,1.3716167004114457,-8.384332623831105,-3.470888140767161,-1.7485653363233022,-0.36692966401277555,-2.3160237906308847,0
4.219928000000003,2.078985889793346,-7.644931679026667,-3.824766645814007,-1.5151658273312814,-0.47990026911589084,-2.3115692607480196,0
4.229928000000004,2.5475401547958647,-7.182193029902034,-3.919721407024652,-1.2865114706539953,-0.5758944087685318,-2.283054966803478,0
4.2399280000000035,2.7839394395100596,-6.943166813629927,-3.8059013493153,-1.1280092797622396,-0.6212839831978361,-2.2385297104727093,0
4.249928000000003,2.90891577074512,-6.847782998561583,-3.4567072723681114,-1.0454261429384468,-0.6533207879790736,-2.1811630672323306,0
4.259928000000003,2.9544904935908893,-6.765282547994415,-3.118950221800631,-1.0007849523371009,-0.6910276144351363,-2.0815492299246587,0
4.269928000000003,3.00565515149767,-6.575247683243678,-2.9098684368425354,-0.9715708827726756,-0.809767891389269,-1.922420936563707,0
4.2799280000000035,3.0650022321530264,-6.258035208561403,-2.706775853638389,-0.9238513397354173,-0.9989415180078672,-1.6683262713425373,0
4.289928000000003,3.1520393410344076,-5.820422598554294,-2.8437804419536947,-0.7882971900058117,-1.157034198922694,-1.3086868147556945,0
4.299928000000003,3.3145136932803783,-5.3196566437556365,-3.3732397262681872,-0.5416169773715028,-1.2184422634538765,-0.8833934109942312,0
4.309928000000004,3.4592352003772433,-4.901297108127994,-3.9973537522721645,-0.2439729666669605,-1.1994699484013136,-0.4530060699740831,0
4.3199280000000035,3.2160164970003,-4.751346118051558,-4.318053162965178,0.02564298390312996,-1.1237579891214975,-0.11304182061608815,0
4.329928000000003,2.6174174090485898,-4.818536523000068,-4.301910732314054,0.2223981841509707,-1.0195567053966257,0.14891342617451114,0
4.339928000000003,2.1101957067209693,-4.894894964507519,-4.026498806976715,0.33743947854929107,-0.9047078443201099,0.3421975434111392,0
4.349928000000003,1.7063545740487096,-4.89402321551857,-3.6864169035697816,0.4086067323298902,-0.7483774907162625,0.45380471984252424,0
4.359928000000004,1.325074542012494,-4.813235668055086,-3.47855769723298,0.4670893056188327,-0.5105568763424544,0.5058768495957083,0
4.369928000000003,0.9877956084016594,-4.7155532498846355,-3.41302807385854,0.5270284362868851,-0.22539484585483918,0.5366670987426025,0
4.379928000000003,0.7124480203384739,-4.726305220613862,-3.44452070492514,0.5817604092356349,0.05466682434044812,0.5550522940162574,0
4.389928000000004,0.5511410409130036,-4.981867914272719,-3.477825435256013,0.6285932437083059,0.24411308403947596,0.5619919911783788,0
4.399928000000004,0.5446273239738482,-5.514146059288572,-3.507321161339302,0.6837702193314219,0.2934960528162937,0.5972458410894618,0
4.409928000000003,0.7395322422812701,-6.260551156835049,-3.6070242550393012,0.7823669923095931,0.19205299420384944,0.6912814042070846,0
4.419928000000003,1.0282164529678566,-7.20607311767951,-3.900462769940469,0.9289351162203314,0.009455435301625858,0.8050577159595542,0
4.429928000000003,1.2275393620237907,-8.26621572026422,-4.279596428512879,1.0849866962507422,-0.18595550023333754,0.8792094407030084,0
4.439928000000004,1.354364330679558,-9.28454419164865,-4.561177529902999,1.1973472007030161,-0.35926667673969964,0.8894579578352583,0
4.449928000000003,1.5400883663331613,-10.207626224496519,-4.655485621151783,1.2380232429434106,-0.4427309701666702,0.8550407486366932,0
4.459928000000003,1.7793730447179805,-10.97109613415889,-4.61807608060905,1.2079937490194195,-0.40425378414609914,0.7978137162049349,0
4.469928000000004,1.9962542237216228,-11.458782916088142,-4.498800441002808,1.0688723271629734,-0.30310491189987765,0.7563914620323741,0
4.479928000000004,2.168475324380506,-11.640656128625505,-4.371838492771391,0.8314440048002136,-0.2230130659720396,0.7261260604427712,0
4.4899280000000035,2.2896233229582053,-11.610537272021748,-4.412144570946842,0.5552801672414014,-0.18571145754592536,0.6873459484175518,0
4.499928000000003,2.2645769421975057,-11.421227974153613,-4.779330726701006,0.32559956941153956,-0.18208665278820413,0.6137102088260947,0
4.509928000000003,1.9375630508971613,-11.093973823451863,-5.561265209637758,0.21849960638608193,-0.18198162890463088,0.48726705057070147,0
4.519928000000004,1.455312159461457,-10.915695432725132,-6.708761455609704,0.25379325597641694,-0.21607164666898848,0.3535776766768918,0
4.5299280000000035,1.169707579127424,-11.42643721001205,-7.725278935784005,0.42387573568244635,-0.25446839526235143,0.23900946511312168,0
4.539928000000003,1.1509591587010042,-12.572072161772724,-7.81826181454581,0.7062114078360856,-0.12997292499654356,0.1781069131506521,0
4.549928000000004,1.0973188474100346,-13.594300097803167,-6.9720465412917845,1.005443022395793,0.21402904630898842,0.2277560995386477,0
4.559928000000004,0.8188455790572693,-13.855491442588788,-5.656444991738506,1.192765953517229,0.7118267253801064,0.36394704813728557,0
4.5699280000000035,0.46897918190571053,-13.415055002994313,-4.175971742540559,1.2311255323783927,1.0716418279586883,0.5413917460595873,0
4.579928000000003,0.10010929804425042,-13.022831223427763,-2.736093396994809,1.2074111957250069,1.130036807042352,0.7345444563185465,0
4.589928000000003,-0.47081800703245424,-12.864077069140292,-1.6083570057953431,1.201223548048004,0.9739824516832899,0.9089531257803043,0
4.599928000000004,-1.296823874473028,-12.564397785580358,-0.9276629414236865,1.2294723235659015,0.7662270189542353,1.006958420253042,0
4.609928000000004,-2.183553606406537,-11.325393336124023,-0.6163568237287357,1.311923108792609,0.6656064559283567,1.0367590443551162,0
4.619928000000003,-2.707236427398024,-9.058718016410342,-0.38508793955565346,1.408798959095126,0.5825982055948151,0.9746140792648552,0
4.629928000000004,-2.694882231208034,-6.716777030586844,-0.10564369086454459,1.4609194813666313,0.5449191462333051,0.8691842259844857,0
4.639928000000004,-2.3802581898375625,-4.895431059927189,-0.0069171027556839786,1.4033314569385769,0.6709394290797503,0.7535733243873133,0
4.649928000000004,-1.8876650975831568,-3.6814033788306046,-0.12760706154924956,1.2741533891662957,0.9555158351797646,0.6774823594466243,0
4.659928000000003,-1.1998283289851066,-3.1295403370218167,-0.12616649349979625,1.14363772535377,1.175633947260088,0.7250130631474235,0
4.669928000000003,-0.3232298604114858,-3.3662661502101,0.35698346792215846,1.0639988677769652,1.1879744542416792,0.9526340505393216,0
4.679928000000004,0.4447323978716325,-4.528579327409112,1.1429620455645906,1.0611548614562454,1.0493191220967022,1.2337248459052135,0
4.689928000000004,0.7586388607780374,-6.410714521743037,1.941078984933982,1.1316516657651507,0.7961063874515463,1.460046249595345,0
4.699928000000003,0.5724388840804795,-8.583019954839788,2.7566337951639266,1.1882647039577043,0.5010574776857928,1.5543145523767306,0
4.709928000000004,0.028722203406540525,-10.434014555320154,3.4459381128365587,1.1840894844847019,0.2361899797551469,1.500255420779726,0
4.719928000000004,-0.6839494009007177,-11.614312825943749,3.660571758338721,1.0987975144321132,0.08492105700314287,1.3136948151118806,0
4.729928000000004,-1.3892539407530933,-12.19200401770785,3.420988064011879,0.930809682592166,-0.018181711040298865,1.0243708717383575,0
4.7399280000000035,-1.972659696252959,-12.305605041075722,2.9662946397371837,0.6982671049492074,-0.07616165934500205,0.703933158265053,0
4.749928000000003,-2.3578936328365736,-12.198083973908137,2.3920863593510973,0.4686595885430551,-0.12152265916874651,0.4121602347771054,0
4.759928000000004,-2.42559892034073,-11.978742949381516,1.8174456761074418,0.32636355828708946,-0.22171633974135196,0.1489481362782373,0
4.769928000000004,-2.1104129236390428,-11.294293186872652,1.3290919334866087,0.27789688626926834,-0.23884867295758686,0.017246852963531636,0
4.7799280000000035,-1.461692567846926,-10.186027121625491,0.9351660795677808,0.291145475992012,-0.16778773275879835,0.01714391419407363,0
4.789928000000004,-0.641462083486187,-9.32646123849483,0.6969579563248408,0.34717603990477736,-0.06063780557165507,0.10577701798616042,0
4.799928000000004,-0.10829066627557851,-8.947379842864034,0.5048058991249064,0.3912588149057786,0.11209674850917253,0.23536705339500458,0
4.809928000000004,-0.16269739247751577,-8.853221990992042,0.30323095883355633,0.39345779621306814,0.2623462224002363,0.34807676191302706,0
4.8199280000000035,-0.5011559256854861,-8.879400482362342,0.21806945171043904,0.3457057016334032,0.2975851939107042,0.4747697241200234,0
4.829928000000003,-0.930228629141507,-8.95804322765231,0.10889317698188329,0.2780335624934224,0.2494250174673578,0.581337145140439,0
4.839928000000004,-1.563993139973174,-9.105401699216014,-0.20131090716504652,0.2108167699519306,0.18060977014011254,0.6413066654155145,0
4.849928000000004,-2.374952157967486,-9.284276977415804,-0.6563920031600226,0.16205230066381832,0.1693671089442317,0.6468568643544625,0
4.859928000000004,-3.117467198285754,-9.437848570867379,-1.0910419795607587,0.17419263522318354,0.27577571871249024,0.5941915285477544,0
4.869928000000004,-3.5635186370561547,-9.592575707846342,-1.2797015592123353,0.27145239276407246,0.5054315646949095,0.4723342119352865,0
4.879928000000004,-3.7272425436480074,-9.79775775514264,-1.110450625445473,0.4219068081613744,0.8122160186847525,0.270173491357643,0
4.889928000000004,-3.7124830087782996,-9.999223439145817,-0.6472593131157515,0.5700870850849074,1.114282534470023,0.008562969503422807,0
4.899928000000004,-3.4860421341835215,-10.061396567701491,0.034532149523379685,0.6559600978853143,1.3032548302152,-0.23180428810625395,0
4.909928000000003,-2.8286961272056805,-9.898588074249707,0.755325045705563,0.6752869720927637,1.3498856251740718,-0.34054444189498784,0
4.919928000000004,-1.8479597133625807,-9.615899037585253,1.2467734907755383,0.6461692393971292,1.2834473578322405,-0.32934052376788214,0
4.929928000000004,-0.9631480551279089,-9.379101136302765,1.4674983620935882,0.5957593528013146,1.1317198861797475,-0.26163363952376595,0
4.939928000000004,-0.32536504840143843,-9.218167346727242,1.5266303728485917,0.5471671863850237,0.9615442930732064,-0.1774578093171585,0
4.949928000000004,0.08049975796373948,-9.146968454260463,1.4338513520742218,0.5158409797579753,0.8242449327603147,-0.0914368812349463,0
4.959928000000004,0.3080887413053913,-9.13634165244374,1.2160459393715788,0.5130129648546276,0.7354237690079277,-0.009274841302662165,0
4.969928000000004,0.4246792427144609,-9.139323921572608,0.9253400698304836,0.5415716771541581,0.6925247460177159,0.07239600155152912,0
4.979928000000004,0.42775933281622663,-9.135506561492203,0.5992638104848917,0.6008056682827536,0.7042905662533396,0.15083299774368272,0
4.9899280000000035,0.27152666925939895,-9.071439074920141,0.2893658211840433,0.6821228442742282,0.752361583042464,0.22343035697567848,0
4.999928000000004,-0.028255126490259852,-8.94000697230118,0.08718797562228023,0.776549699202139,0.8094728275900617,0.28642022554838353,0
5.009928000000004,-0.39883237433877816,-8.835816244280995,0.004836229863205154,0.8565446847813445,0.8682498785118098,0.338803498978645,0
5.019928000000004,-0.7792916710701094,-8.873167209196513,0.07558232778653359,0.8996240835122334,0.8757942076571357,0.38043980143769285,0
5.029928000000004,-1.0961924286855274,-9.059060224222808,0.37034608289872983,0.8953689647513581,0.800269534996973,0.41789667020034393,0
5.039928000000004,-1.2876270269152514,-9.332198989730676,0.6322964743157352,0.8503272786945875,0.7170692989541421,0.4417886295732624,0
5.049928000000004,-1.3473490704374362,-9.610685309982724,0.542784887710591,0.7818596133052721,0.6934689937086039,0.4338143336727322,0
5.059928000000004,-1.3411913630053152,-9.891092556989644,0.19431682983600548,0.7052808590026935,0.751213939316426,0.4022488907575408,0
5.0699280000000035,-1.3067243125224632,-10.158292402709282,-0.14554289207120114,0.6288440634274328,0.8386042571701032,0.38308384829702585,0
5.079928000000004,-1.1913745888181557,-10.298526969272706,-0.25677136228821545,0.5727783121942215,0.9397931707139686,0.3838719761621253,0
5.089928000000004,-1.0586663430300698,-10.30286871348865,-0.2758595768328765,0.5538624201084198,1.0577412839539913,0.3946465481870419,0
5.099928000000004,-0.9404863995372322,-10.255430739501278,-0.25638292161091636,0.5658905562786418,1.130788331121567,0.40307290569902987,0
5.1099280000000045,-0.806735936205204,-10.199362943621258,-0.06843687953151448,0.5912048753710715,1.13592350889702,0.416510747076469,0
5.119928000000004,-0.5722259960215823,-10.197162985946552,0.22152430965408385,0.6171946245296142,1.088971767290563,0.4315521216737663,0
5.129928000000004,-0.2025568929878098,-10.303495831146153,0.526714263450648,0.6176060303047056,0.9890549516627836,0.43812004440530605,0
5.139928000000004,0.3279582139539259,-10.517484739924987,0.8380140022203005,0.5824559760156431,0.8351592304873907,0.42401026354701427,0
5.149928000000004,0.9895293907133333,-10.768370677776563,1.0848491935114977,0.5082173974546462,0.6457305738231524,0.38579857616233126,0
5.159928000000004,1.6661594644076558,-10.996711255152782,1.1838820732676463,0.4117931539799491,0.45126186560215853,0.31916701875160275,0
5.169928000000004,2.2163813499523077,-11.175220150261936,1.0506785430588084,0.3274377274873238,0.31322427112513457,0.23810287061457192,0
5.179928000000004,2.564921143292059,-11.248510686545876,0.7354415393183038,0.2767190308876685,0.2674173510726029,0.1549331038492565,0
5.1899280000000045,2.6491321641083867,-11.167612267777981,0.44902569274245296,0.2719871901885702,0.28906742863832896,0.09650026896899483,0
5.199928000000004,2.451647617529854,-10.923614219925218,0.4187893968574269,0.3072687051487164,0.20004346083346392,0.07314857959959775,0
5.209928000000004,2.1201775578005426,-10.65611680517645,0.5687744250618847,0.3303412905605165,0.021808664771849923,0.07481694603986741,0
5.219928000000004,1.5296555793748756,-10.67085646093124,0.8738968395306952,0.3211733537138998,-0.05463424969018563,0.06010449599708792,0
5.229928000000004,0.48464828273070854,-10.951478478427745,1.2274372608552524,0.26010147063752903,-0.064293160307561,0.011564442264097703,0
5.239928000000004,-0.4571401270143235,-11.410076602657194,1.492642233853249,0.15016477680200263,-0.07192072079175843,-0.07746016558565401,0
5.249928000000004,-1.2206826620620013,-11.95520076340564,1.8197803192967699,0.01073979130529086,-0.08408807548247052,-0.18348342270308082,0
5.259928000000004,-1.957597945955803,-12.085071628040748,1.9385460666262815,-0.13208036303268528,-0.07839210127329527,-0.27574064906774864,0
5.269928000000005,-2.5404299118499387,-11.832940486469944,1.6394397857997642,-0.2715509829614631,-0.023102763881633778,-0.3646783868400593,0
5.279928000000004,-2.9638130329456365,-11.592265213973064,1.1630889753554372,-0.3968685024022469,0.12141053792428037,-0.45258203360117805,0
5.289928000000004,-3.1777185825173264,-11.31567995611664,0.6831919800453317,-0.49969583539358803,0.31038398947629475,-0.538637469424442,0
5.299928000000004,-3.1891533161195125,-11.177375252008197,0.5905019579533045,-0.5854573000746705,0.4981656106990974,-0.6037399879777081,0
5.309928000000004,-3.132217063220115,-10.94414480408982,0.77943646540657,-0.6639776525461601,0.6714490090348979,-0.6431484269827609,0
5.319928000000004,-3.1433710983439958,-10.529917391213692,1.0892931674919852,-0.7630030897427171,0.8620034011059469,-0.6342660103814995,0
5.329928000000004,-3.347601652554527,-9.765021105668191,1.2414385218630515,-0.919889932545402,1.0339290540623958,-0.5788568207329546,0
5.339928000000004,-3.6495079843544187,-8.871077143470787,1.334324001411256,-1.1398191108539368,1.172746325915784,-0.5211937676236822,0
5.349928000000005,-4.029177051185155,-8.228177475123903,1.3553600219644752,-1.3858301507892519,1.288927196012416,-0.48166885716444663,0
5.3599280000000045,-4.431608575164088,-7.734412078316993,1.2942017721845356,-1.6056234418460604,1.4088068274034302,-0.4313411322532451,0
5.369928000000004,-4.782701676610303,-7.204533177597107,1.1871207355620683,-1.785373788301912,1.5754675916720606,-0.3492003619412273,0
5.379928000000004,-5.126633543071442,-6.7795312721542,0.9259299267504193,-1.9371163229401303,1.790099334512193,-0.2423402936189113,0
5.389928000000004,-5.44298755102421,-6.915177510836457,0.5576109302420829,-2.0592311621945867,2.044136156497138,-0.16211793717201772,0
5.3999280000000045,-5.67359678323177,-7.760140963910649,0.10316735239155109,-2.1425537870740583,2.3244476255619855,-0.13239334495336477,0
5.409928000000004,-5.750045057341813,-8.745974841842838,-0.31787018182829907,-2.173781354240615,2.6067265471213954,-0.1549525133697256,0
5.419928000000004,-5.696050036800443,-9.420362213684337,-0.5734244018350613,-2.1553188759940287,2.8176295508016245,-0.2528452572186829,0
5.429928000000005,-5.567815719956426,-9.806030953842098,-0.5279077042032516,-2.0903111653937385,2.90526586213594,-0.4325902545061563,0
5.4399280000000045,-5.441521815917236,-10.12944185826269,-0.309720812009868,-1.9804753374737512,2.930683872288528,-0.6445639521068853,0
5.449928000000004,-5.3409206392506,-10.497039164183967,-0.35103769871814683,-1.8378707729529267,2.946018851319247,-0.8283515478977397,0
5.459928000000004,-5.178603349187997,-11.021097072019561,-0.5675423064656763,-1.6744273305242918,2.724479795527813,-1.032888043816071,0
5.469928000000004,-4.580100697743581,-11.938769441211571,-0.49298036635113957,-1.5042069940193916,2.1428007194268743,-1.2877517327154493,0
5.479928000000005,-3.7352999288527355,-12.78300524453523,-0.4992098390010048,-1.3732534375973195,1.4403387597436739,-1.5233500836849223,0
5.489928000000004,-3.009862344351564,-13.02804104233055,-1.090753633536799,-1.3226678941455332,0.8956726299381428,-1.683746904826034,0
5.499928000000004,-2.373397849322779,-12.494120454593526,-1.9395874170531895,-1.3475080870265768,0.5884416943300192,-1.7888644471118642,0
5.509928000000005,-1.6978657938296473,-11.562605853427343,-2.564741211569582,-1.3983426556486713,0.4412410111181339,-1.8974817287339645,0
5.519928000000005,-0.9392787392093218,-10.61107987403335,-2.77294453855144,-1.437091487299044,0.34902781116962456,-2.0360300726120317,0
5.529928000000004,-0.24766611206663378,-9.828311057946681,-2.760260469910005,-1.468892913495708,0.24583720941449005,-2.1874042713452075,0
5.539928000000004,0.27751953514992456,-9.223443513135768,-2.6041989803021437,-1.4813042799411473,0.10737463828394894,-2.308693916996295,0
5.549928000000004,0.6678797449827928,-8.752170452741918,-2.3643501927734145,-1.4573096554366876,-0.08474788947924498,-2.381712488603357,0
5.559928000000005,0.9937700321146233,-8.488927376686876,-2.073351462694912,-1.401811122105439,-0.3454204470414669,-2.418076977090391,0
5.569928000000004,1.2626121183176813,-8.39682368919329,-1.7655142981712215,-1.342570978849523,-0.6270229763645176,-2.4145858574622983,0
5.579928000000004,1.4888615806076992,-8.33681494106165,-1.5981484513091668,-1.3110551288283936,-0.8327816308356436,-2.3647545922882482,0
5.589928000000005,1.7118959519532222,-8.27153688840451,-1.7483321885816676,-1.308327387203874,-0.9200726862491465,-2.2729308318507893,0
5.599928000000005,2.012211812946748,-8.128631290261643,-2.195894565539451,-1.304149467677325,-0.924851987987218,-2.1315914867892087,0
5.6099280000000045,2.4214378267867347,-7.814014356551856,-2.854425779532705,-1.2214466751434585,-0.8889153795500664,-1.9088161962944807,0
5.619928000000004,2.903403099419162,-7.234699773292244,-3.8929486492321552,-0.9766119145611887,-0.8195362960177798,-1.573768268919794,0
5.629928000000004,3.4010117372149558,-6.408063354646474,-5.280315482564656,-0.6126190004670855,-0.6764985965635484,-1.152236597426258,0
5.639928000000005,3.6998335778875733,-5.584534746062346,-6.191204121329924,-0.2662617837241265,-0.4675979983088492,-0.7140902816447394,0
5.6499280000000045,3.616991927810781,-5.0070310336245685,-6.0740424932420725,-0.03495845906753005,-0.3045982351422576,-0.3162199112901498,0
5.659928000000004,3.1835913224025627,-4.726302835315878,-5.227746134243075,0.08295198045560376,-0.2410864707631791,-0.0007557010639518136,0
5.669928000000005,2.590772538384674,-4.694420171763186,-4.4336663280430715,0.14342299055848085,-0.23429440509296515,0.23582630673079052,0
5.679928000000005,2.2558513350676543,-4.705504579596255,-3.9482299162583168,0.1757538812176388,-0.24804430263850366,0.4149884014791584,0
5.6899280000000045,2.0925038947544534,-4.691984675599249,-3.6428227033909737,0.1845199147867602,-0.255264298741035,0.5476774557237178,0
5.699928000000004,1.8799522833851399,-4.780517869273883,-3.4752653614536433,0.16713919762074417,-0.2270591826474445,0.6562014691037952,0
5.709928000000004,1.599867237126904,-5.072670087448748,-3.4387009151767978,0.12689411187260183,-0.19125912812062162,0.7372486579420156,0
5.719928000000005,1.1954833756923289,-5.637124873020976,-3.472554534057334,0.09149778268484789,-0.19593942054862257,0.7637068062369207,0
5.729928000000005,0.7672104121902539,-6.307578287950568,-3.5356887855023427,0.09805226020115179,-0.22812363198804697,0.7355934312042722,0
5.739928000000004,0.35680398504934757,-6.907502423274089,-3.7731188566452922,0.16488666900431986,-0.26728690347858103,0.6752604201682875,0
5.749928000000005,0.04710479865252354,-7.430553029574806,-4.111816125170856,0.2869921905161825,-0.32786787696579067,0.6090840536412574,0
5.759928000000005,0.005210980026345839,-7.897821497886736,-4.429936864348558,0.4480998423567526,-0.39530684137760574,0.5724985982766411,0
5.769928000000005,0.2926973784229607,-8.280583600538028,-4.735295470408132,0.6251050712645766,-0.41245309798375746,0.584268414289942,0
5.779928000000004,0.7745207641653624,-8.541812036410537,-5.013801911029643,0.7800579930166,-0.3610940096311665,0.6318176700458391,0
5.789928000000004,1.189017097784255,-8.715615595485565,-5.003788164930173,0.8756874535052594,-0.28262188144376094,0.6905325897559844,0
5.799928000000005,1.4407861660742183,-8.890310440930127,-4.691797125982469,0.8900172761679304,-0.24468624721904586,0.7468211221020541,0
5.809928000000005,1.5872411657826726,-9.17250529674966,-4.213914802969365,0.8226077074466812,-0.27285618462544187,0.7894074265195868,0
5.819928000000004,1.727132796497962,-9.57828131516478,-3.924785602904528,0.7093932521695869,-0.30895920162374874,0.8187519122983293,0
5.829928000000005,1.748042379336646,-9.990095551067151,-4.114805856769325,0.5885385756541699,-0.31160953501474814,0.8307969050675678,0
5.839928000000005,1.5622106736356947,-10.33051021138321,-4.51860920658897,0.47980394416947847,-0.30438648751115294,0.7966425438583246,0
5.849928000000005,1.1697824007933875,-10.494440587480327,-4.895520488649226,0.4086211739264975,-0.26722641439878725,0.6962807165649825,0
5.8599280000000045,0.6387483379129982,-10.4496866169581,-5.463612553833546,0.38856764921611225,-0.20237791792298493,0.527528816770543,0
5.869928000000004,0.19992293772832842,-10.404243295499397,-5.939683854055709,0.4028233186741233,-0.18784812486105842,0.32149166110269156,0
5.879928000000005,-0.09579122690959123,-10.387846787528456,-5.997666339155926,0.42895385146774323,-0.234591240010047,0.12058009391711792,0
5.889928000000005,-0.22596790614296547,-10.28446465929833,-5.94465156969458,0.46199735886308646,-0.29903818363936274,-0.06276375784291789,0
5.8999280000000045,-0.15022899170073634,-10.052924240971642,-5.913789453160716,0.5064818128846147,-0.3438400873153743,-0.21894271100444473,0
5.909928000000005,0.09718730855997493,-9.54893950475169,-6.015592033774615,0.5523549171320207,-0.32632672107984617,-0.3013952379708782,0
5.919928000000005,0.5753343345097066,-9.147910757295422,-6.607560077481454,0.6352201985873546,-0.16943969981101836,-0.2444533627575993,0
5.929928000000005,1.2201296497573897,-9.882737015212726,-6.899368164466967,0.8146894566523034,0.202281547869752,-0.022145906239266766,0
5.9399280000000045,1.619354179108683,-10.854092029517766,-6.269699627532289,1.0380689392548932,0.767017490307077,0.32902437403662704,0
5.949928000000004,1.3956340390425268,-11.075682809808349,-5.5533075480744,1.270746754633005,1.3292465657449168,0.724748033372883,0
5.959928000000005,0.7746411730742796,-10.897290141565383,-4.199253840682387,1.523833343991836,1.535141778742289,1.1040460826730762,0
5.969928000000005,-0.018849005868402324,-10.48644017921729,-2.3575697020335262,1.8029972831451557,1.2801608389734014,1.431662660972444,0
5.979928000000005,-1.0026539458809482,-10.115283506310941,-0.8541528656730435,2.050722449246775,0.8095651477265133,1.6663783403246426,0
5.989928000000005,-1.9222619389283007,-9.838266359483313,-0.017725261636154954,2.1524683320527735,0.3886596932114598,1.7720841011534025,0
5.999928000000005,-2.4627145557397205,-9.826736332352093,0.34697362400960835,2.0422375830728456,0.13870195936145072,1.762422360661858,0
6.009928000000005,-2.8364262852081277,-10.105127930660238,0.14723138676135597,1.6870985647001275,0.19936720339690872,1.634388188424193,0
6.019928000000005,-3.0782688666160456,-10.640223203307029,-0.4655448625711718,1.100748323528117,0.586186310445632,1.348438868785058,0
6.029928000000004,-3.246918700630697,-11.244783750296172,-1.0064898209399686,0.4456070587691748,1.1673273546020748,0.8969977402691038,0
6.039928000000005,-3.4249262355344543,-11.365625191279925,-1.1368275387575228,-0.05991139308706626,1.6751434947476684,0.3955002949774771,0
6.049928000000005,-3.5393277790652924,-10.575057780696795,-0.8351279838312632,-0.27147834184378195,1.8435543493266195,-0.02565135709800112,0
6.059928000000005,-3.139075347025196,-9.219367667807624,-0.31338332593824897,-0.14386132589640643,1.6598545165891039,-0.25278559251631405,0
6.069928000000005,-1.9779547785927447,-7.71961260850406,0.18964860245690307,0.29268912817949444,1.4010947499329796,-0.2232496875047838,0
6.079928000000005,-0.7415500299418385,-6.436591134829583,0.4902178075536696,0.8938477968167671,1.2464633464651307,-0.005784789060555531,0
6.089928000000005,-0.04408747301077043,-5.539730778141132,0.9829183710340543,1.464672213458083,1.1074923800861283,0.2995546720577876,0
6.099928000000005,0.042989437669530756,-5.10648568464923,1.7750425448143063,1.8676920400398513,0.9039492782289915,0.6239920427530292,0
6.1099280000000045,-0.20820029721981578,-5.25496122571383,2.7898169571323024,2.040970469021243,0.5676501268971117,0.9520547624342535,0
6.119928000000005,-0.6109181013575916,-6.0088052075336575,3.9212109034222933,1.9311650125974502,0.08304166737035612,1.2473571920130477,0
6.129928000000005,-1.1549105624708518,-7.437628074215132,4.845743662219597,1.5479546008981784,-0.42968410846912,1.3752966297469824,0
6.139928000000005,-1.6436525757742495,-9.441512579921914,5.159681557659444,1.0488154960933977,-0.780065354366544,1.2307009727885143,0
6.149928000000005,-1.8933636663618791,-11.452195597910512,4.8496554728923105,0.6000931076613062,-0.819220297616411,0.8576827948723218,0
6.159928000000005,-1.8653878876876158,-12.66520092698467,3.95723000149788,0.30338624341323156,-0.5141314026902581,0.4426566847659406,0
6.169928000000005,-1.4508219902537225,-12.567171062001657,2.5683727996207146,0.17862163624460414,-0.0371408877518333,0.2142020206651947,0
6.179928000000005,-0.8857719719405577,-11.480988013206591,1.390214909328137,0.16496338582488515,0.39077549647070614,0.24544009469945222,0
6.1899280000000045,-0.6018359645075742,-10.057152219430362,0.4928886163141667,0.22494301324850266,0.6632517388418695,0.4417645851310647,0
6.199928000000005,-0.7538394494933801,-9.045143922796514,-0.18545798851382922,0.3202647616449596,0.6839811006984879,0.6881975137405962,0
6.209928000000005,-1.2749059455016816,-8.668371165838803,-0.6904367195305705,0.4312316046466637,0.4903279606046808,0.9377069919273799,0
6.219928000000005,-2.053301156696523,-8.854141691652051,-0.9700457167467527,0.5177156108037032,0.2593347271194486,1.1060612944534145,0
6.2299280000000055,-2.845321907669338,-9.416114467365661,-1.3354460732264977,0.5355111145160465,0.19536433036310902,1.1439230967732714,0
6.239928000000005,-3.5534035275246487,-10.04118689227362,-1.9232644351999126,0.4680416117185381,0.42111095383429564,1.0544967870792312,0
6.249928000000005,-4.115904991291194,-10.376020170369513,-2.4201253213295892,0.3668481648543964,0.907000219143345,0.8617968935210806,0
6.259928000000005,-4.415498128515455,-10.422326375085657,-2.3606749601556025,0.3184979275823889,1.4324535778248788,0.5514591594988272,0
6.269928000000005,-4.4664606476188675,-10.420268766645751,-1.5670520242752157,0.38679234335265666,1.7626305241728535,0.14525366514772242,0
6.279928000000005,-4.375913468280016,-10.427975508187256,-0.39710002298727387,0.5518914503888894,1.8167464306949053,-0.26932492622077003,0
6.289928000000005,-3.9441496522017205,-10.336266242832608,0.7129706567359274,0.7277548584917137,1.6760246638707335,-0.5388204239468984,0
6.299928000000005,-2.805932125317667,-10.009330391439649,1.5329653496892774,0.8507263807793577,1.479191866276097,-0.593897324204427,0
6.3099280000000055,-1.6398714605257922,-9.569550315545756,1.8634516677017554,0.8717627195555309,1.2960644650859647,-0.5381232854739962,0
6.319928000000005,-0.7988489693480724,-9.271292955860908,1.8673392085597327,0.7715790008563977,1.1479378483096982,-0.45570022467706506,0
6.329928000000005,-0.19759419487527563,-9.142030221792101,1.6243378724677293,0.5953143699353998,1.0424138401761198,-0.3715804616678533,0
6.339928000000005,0.27497358786996895,-9.110099375352185,1.2049119023089387,0.4197871574869629,0.972750946261229,-0.28745071872736777,0
6.349928000000005,0.660374334123799,-9.120923062497619,0.6147145629576338,0.3019183411468851,0.9272315810214206,-0.20164521704955018,0
6.359928000000005,0.9531563727829896,-9.136353060414663,-0.020657652845028296,0.271930093878419,0.9072954222319011,-0.1002322419069462,0
6.369928000000005,1.0784829305361994,-9.116010692973191,-0.5382565314105099,0.32554955381064044,0.9060305870460879,0.021220179052049197,0
6.379928000000005,1.001210323771647,-9.03829101865975,-0.8159433028798786,0.4353333557015394,0.9103174812594181,0.1260836425574492,0
6.389928000000006,0.7783944081718163,-8.94291025413421,-0.8762571366470597,0.5699307776897392,0.9152875689348617,0.1917724316403367,0
6.399928000000005,0.4944824356021599,-8.916733394119918,-0.7502287756867267,0.6879416576778147,0.9267716611745029,0.2232116768559769,0
6.409928000000005,0.17895977534828564,-8.940917037191234,-0.5469534619060081,0.7625007996490302,0.9388631371922476,0.23340309244632487,0
6.419928000000005,-0.17126075319091993,-8.95528748320914,-0.344495465071174,0.7874284688893542,0.9276802953853635,0.23511480821138855,0
6.429928000000005,-0.5531472296097901,-8.98223649067674,-0.19828607845521698,0.7645823434134831,0.8925592259800798,0.24521332026236184,0
6.439928000000005,-0.8842989394838408,-9.031111440023935,-0.1545378003107481,0.7158741569127988,0.842263363145783,0.2619749250891731,0
6.449928000000005,-1.046213233059425,-9.132755150681339,-0.22058571196419546,0.6671332996634932,0.7843254836877879,0.2780029121829964,0
6.459928000000005,-1.0389127772609308,-9.280047659089725,-0.3451711571365261,0.6418397670710841,0.7352265683171156,0.2884898321343888,0
6.469928000000006,-0.9142905069244212,-9.488803142570793,-0.4525128190597024,0.6451810797402541,0.7088740036146485,0.3010433099146118,0
6.4799280000000055,-0.7642965323032821,-9.759321888488792,-0.4693316456912355,0.6919465254563587,0.7020407153264333,0.32022241033182103,0
6.489928000000005,-0.6834034965236353,-9.964914112914437,-0.38463107192396384,0.7715774810596971,0.6850973503970413,0.3543287565550205,0
6.499928000000005,-0.648163789850942,-10.061631690043859,-0.24374434617649587,0.8650709744314269,0.6872931690745544,0.4033112445483846,0
6.509928000000005,-0.6512944310731945,-10.095382857438258,-0.20971300312590185,0.939851527836625,0.7173171402064988,0.4586679785964909,0
6.5199280000000055,-0.775824116899642,-10.142656819644488,-0.13677595532841624,0.9777267985709112,0.7629204815606601,0.5121225186702919,0
6.529928000000005,-0.9517114021357349,-10.246721153518436,0.0817831238062559,0.9632519473285571,0.7626497934991319,0.5525143575745673,0
6.539928000000005,-1.02405184468391,-10.401890218132738,0.3543152144403824,0.9023679609599072,0.7116746788151717,0.5794057113573068,0
6.549928000000006,-0.8839676563879704,-10.673941453812924,0.617567415310462,0.7857702351510039,0.5781036624447036,0.5803577799321793,0
6.5599280000000055,-0.5515909487666091,-11.027954206625694,0.79472031877896,0.6544487195649907,0.43726393046573303,0.556591032548325,0
6.569928000000005,-0.1546646146856015,-11.321478886024428,0.7817989643310426,0.5279141172295423,0.3115088993031948,0.515354415388219,0
6.579928000000005,0.18524627738298244,-11.434631325064768,0.5502190606035784,0.43455824054201025,0.2785469151194628,0.4791370817811156,0
6.589928000000005,0.35919673139156283,-11.362274159568006,0.19668574711456638,0.392014742397932,0.3672923469581532,0.4354887342038038,0
6.599928000000006,0.3236180089966734,-11.237001957298734,0.018630401308732968,0.3787148078758537,0.48789219798611433,0.36888527861382503,0
6.609928000000005,0.23584471775031285,-11.029009303250854,0.13134123701803888,0.3728167583182363,0.4438818373600776,0.30306272224777997,0
6.619928000000005,0.22555177236982643,-10.882928870543719,0.31105375794600126,0.35126169708067745,0.3001306016639379,0.2511961614697813,0
6.629928000000006,0.14687856843291094,-10.988436380968249,0.5427479384942708,0.2918857050767469,0.1741412692142965,0.18638610783385437,0
6.639928000000006,-0.03311861829265156,-11.435076789754076,0.8844504243050753,0.1662175011517505,0.05161703572503833,0.06981599853645548,0
6.649928000000005,-0.344330037693191,-12.046933213892782,1.1979743972336205,0.014824046824597464,0.04082133980242675,-0.07970892904654435,0
6.659928000000005,-0.8271249448407259,-12.488935918884641,1.3843963721940966,-0.17646220832440834,0.10821915957573851,-0.24455759745545605,0
6.669928000000005,-1.3507557107632053,-12.567285561705148,1.440897959961361,-0.3785897808293956,0.18896580400550095,-0.39301918958066834,0
6.679928000000006,-1.8269348107452987,-12.426366750823522,1.304868287010635,-0.5459367109476688,0.2893062588730081,-0.5157598712529226,0
6.689928000000005,-2.195162561253454,-12.223903746056662,1.0684134418908764,-0.6488703421157441,0.3776101959176449,-0.627082911583842,0
6.699928000000005,-2.469507512915129,-11.863220729012783,0.9856325381972648,-0.7008305746195311,0.4662777900967972,-0.6911636990738681,0
6.709928000000006,-2.7516397878169054,-11.13270529896363,1.0253787695641758,-0.7212365908755056,0.5964512886858412,-0.6968816962746385,0
6.719928000000006,-3.094319611683467,-10.147345300624933,1.001917597166694,-0.8069842517620637,0.7819882434893431,-0.6557569211249898,0
6.7299280000000055,-3.4336934634458376,-9.090367025306495,0.9685245296464343,-0.9420552346832601,0.9673558661906414,-0.5999555466658462,0
6.739928000000005,-3.7080791341066046,-8.224549326963649,1.1167832350305298,-1.139752845458974,1.074507913195872,-0.5683382940520675,0
6.749928000000005,-4.00683260947777,-7.616563466029198,1.2401619716738297,-1.361672109762287,1.186436469442449,-0.5593958223710253,0
6.759928000000006,-4.356477744528072,-7.18783708781181,1.2270402244652652,-1.6003224963308063,1.3203436857427244,-0.5304053127844253,0
6.7699280000000055,-4.722887151960776,-6.923144243564426,1.146575643449742,-1.8134028326319775,1.4771407769570484,-0.4692765866046555,0
6.779928000000005,-5.046077169322241,-7.11374513392197,1.001252512514453,-1.9947876025522915,1.6090857500646147,-0.3902690270429045,0
6.789928000000006,-5.219144635926948,-7.937238197922372,0.7747632192042926,-2.155268077254991,1.727138617263702,-0.3662908746586982,0
6.799928000000006,-5.223187811735026,-8.96148094364002,0.47970793523074984,-2.2629439138421956,1.8897618165135441,-0.40016607261396486,0
6.8099280000000055,-5.148224700108182,-9.717406980963199,0.16001611280361194,-2.307314635564908,2.0626341543696816,-0.506186140345643,0
6.819928000000005,-5.033907453343752,-10.217842960375135,-0.03259993716365189,-2.275497858161735,2.1988079199450925,-0.6875194556880656,0
6.829928000000005,-4.899578617629151,-10.737490172217209,-0.09653211077314425,-2.1685677506652836,2.2459447889840867,-0.9584832601929671,0
6.839928000000006,-4.676105147666171,-11.528681760503524,-0.061868182115711746,-2.022242419561615,2.1350912576644117,-1.3311336547629218,0
6.849928000000006,-4.248375591891645,-12.411920503456626,-0.0009102833491567985,-1.8886812640977415,1.8737608263469232,-1.7274394418288197,0
6.859928000000005,-3.6547588040325394,-12.973831535363725,-0.12770147525915532,-1.7799744469064278,1.5708480199406858,-2.0167253329155934,0
6.869928000000006,-3.040760040332988,-13.134702910000007,-0.4645173644557888,-1.715502950581637,1.284045804523341,-2.143791537584133,0
6.879928000000006,-2.471475281844313,-13.061502549135378,-0.8139640860097346,-1.7136624242183274,0.9278799955358976,-2.163797233270128,0
6.889928000000006,-1.8980546330014803,-12.861024019928163,-0.9424400513556217,-1.7845647198629873,0.4609883757657282,-2.161004098415934,0
6.899928000000005,-1.267460780664471,-12.355925425821322,-0.9469173095596347,-1.878534301304506,-0.014988094833034704,-2.2198104120348927,0
6.909928000000005,-0.6259876593498417,-11.400876112937603,-1.149877442772349,-1.9334136512945383,-0.34674688155201205,-2.3204310197913394,0
6.919928000000006,-0.03570692424295868,-10.245621189309919,-1.5181299311265148,-1.9383406946095627,-0.6072578446770515,-2.410837466215195,0
6.929928000000006,0.5404432625995745,-9.272245783207264,-1.8368776512065126,-1.9133819743904223,-0.8758000824117139,-2.501761791541887,0
6.939928000000005,1.1301164032116007,-8.603481346757885,-2.1030240498826345,-1.8661104186852313,-1.1820205099057532,-2.5737569223307175,0
6.949928000000006,1.6648727648936301,-8.122374668921045,-2.394657788367229,-1.7588336648451652,-1.4650246538492921,-2.5937557579229256,0
6.959928000000006,2.0823222667280086,-7.700126470794099,-2.8547308286955166,-1.582681246095119,-1.6159145976536162,-2.544355315202218,0
6.969928000000006,2.418095595662387,-7.313818927456041,-3.36778487611201,-1.3800777929610606,-1.681884644409818,-2.4366030061299364,0
6.9799280000000055,2.7048476219984874,-7.00224491675697,-3.671752231046521,-1.178818735861561,-1.6868040517149647,-2.294810930389221,0
6.989928000000005,2.9232904161948197,-6.720825629636811,-3.730862877827029,-0.9941405721920293,-1.7022210999414062,-2.1262623429737717,0
6.999928000000006,3.0722907553722965,-6.39163525921468,-3.6465470454811575,-0.8063165897797742,-1.6813298986153493,-1.9079031151124275,0
7.009928000000006,3.168994478886573,-6.028894720214352,-3.565218520422392,-0.6194142434626841,-1.6155296373538561,-1.6423544106811803,0
7.0199280000000055,3.2244704641725423,-5.65228301100791,-3.4930027682989517,-0.44470747121840093,-1.5163175827654694,-1.3366280843143918,0
7.029928000000006,3.246559435753217,-5.244575470829397,-3.3951779117094145,-0.28972370441127737,-1.3934375646703396,-0.9989894019576941,0
7.039928000000006,3.1943137895988536,-4.831592532813809,-3.311302169820723,-0.15878766596327454,-1.2529547949505617,-0.6604715248229789,0
7.049928000000006,2.8760876305608845,-4.521493295041213,-3.3305182749739797,-0.030371588798188145,-1.0606841074032216,-0.35471530543317104,0
7.0599280000000055,2.323917016055655,-4.305754938781254,-3.482698086745876,0.10621208198661744,-0.7968680855426501,-0.07667282765639025,0
7.069928000000005,1.788058763661966,-4.06597859969029,-3.586190365297868,0.2497064200893302,-0.5546733080725956,0.14136900184611995,0
7.079928000000006,1.2618224190448393,-3.827729614799787,-3.4722222836795256,0.3821242617298011,-0.3977071105137527,0.3203602118641242,0
7.089928000000006,0.7164613620547908,-3.697021070249794,-3.2265121436985136,0.5092866454317013,-0.320671768885846,0.4636383079611837,0
7.099928000000006,0.19454010567574542,-3.8613499481228484,-3.0287503185403692,0.6091538282894466,-0.28329314987802806,0.544228782541213,0
7.109928000000006,-0.2720012287084115,-4.460179069613601,-2.9666580059626373,0.6769250636765016,-0.23339407807558898,0.5524207068151312,0
7.119928000000006,-0.5974378307662511,-5.419322248197427,-3.0119006559043866,0.7080430975743066,-0.21138056999674118,0.5018756090351899,0
7.129928000000006,-0.7053587982382694,-6.628158209432361,-3.0615821653932733,0.7193104199423536,-0.2896609612739427,0.4334472560578316,0
7.139928000000006,-0.5241076207077202,-7.94955264110982,-3.172348411902574,0.7335079417003765,-0.47619371809421485,0.39284399054454455,0
7.149928000000005,-0.00885186727197379,-9.190082398388826,-3.5748339324645957,0.7804650747977896,-0.6571609448275726,0.3913164993119676,0
7.159928000000006,0.7292348021821904,-10.226540088430157,-4.313656574365924,0.8440815476896499,-0.7516698487365141,0.3922842052763458,0
7.169928000000006,1.5155099578784732,-10.989957336198689,-5.176999856897229,0.8871295876586645,-0.6758222847365216,0.37652427342756084,0
7.179928000000006,2.235372312145885,-11.436532853539878,-5.886035182549383,0.8884801007547161,-0.48940116006330286,0.34852975826247923,0
7.189928000000006,2.8689836691298525,-11.512186012115807,-6.147599709744315,0.8182163948135629,-0.35228418449475324,0.3402098018940525,0
7.199928000000006,3.3699562027735697,-11.22813241535767,-5.962096825709004,0.7248546999669194,-0.2983646274078862,0.3624314689986442,0
7.209928000000006,3.6515842751100296,-10.75974357890536,-5.712198936683936,0.633745154512281,-0.36683846184094937,0.38828721332422045,0
7.219928000000006,3.5814497878369544,-10.280377688568342,-5.583968051427677,0.5608744121261985,-0.48239935666107503,0.36420394568226216,0
7.2299280000000055,3.0227852126946853,-9.860477133396984,-5.696970986211081,0.5047283649633885,-0.5570887504114462,0.2744142915917685,0
7.239928000000006,2.2689492268804607,-9.549484318875855,-5.963711827645886,0.4709932917787362,-0.591022755742375,0.130234374582696,0
7.249928000000006,1.714511967727532,-9.324167841409711,-6.25694415938621,0.4566786856187204,-0.6120646680585147,-0.04351674043655712,0
7.259928000000006,1.441329625722682,-9.215404805509307,-6.794056161848894,0.42752519410222617,-0.6067881216716808,-0.15102772380292076,0
7.269928000000006,1.5825285294702622,-9.843529809033326,-7.756196130962488,0.5582522917428594,-0.5070979297623489,-0.1297195859505007,0
7.279928000000006,2.2848599526950113,-11.746591034958067,-7.96221935552404,0.8848203433673558,-0.31796976987703596,-0.045999448908979695,0
7.289928000000006,2.8924634604070354,-13.664754131586744,-6.690837450233195,1.2477898584865512,0.14237253619867557,0.11698833055253569,0
7.299928000000006,2.696362979273018,-14.34681656954831,-5.069701448068931,1.4897535369835315,0.6431608861484437,0.363527774093268,0
7.3099280000000055,1.9639446842387884,-14.163013907312203,-3.018421750042747,1.5517060039830526,0.8304310375340815,0.6561858095415023,0
7.319928000000006,0.9387212264994731,-13.762021136868857,-1.1019850502608564,1.496929041503386,0.6196875186156834,0.9133731583503861,0
7.329928000000006,-0.33284679200680933,-13.396324853527958,0.13745260895704167,1.4419670960575033,0.12326424831019445,1.090323850749415,0
7.339928000000006,-1.6330830759073234,-12.433501788592269,0.7372975668506159,1.3766345521635164,-0.38723680752218265,1.178405135089879,0
7.3499280000000065,-2.6205851385001995,-10.702194683275515,0.57836218566255,1.2226549579772887,-0.6274548978107487,1.197234863797283,0
7.359928000000006,-3.133297144030085,-8.53710311855801,-0.08352152030283211,0.9733400276480082,-0.4924890929483191,1.1421627451076488,0
7.369928000000006,-3.1601379879230014,-6.63583358051358,-0.6524880984777265,0.6984922922886988,-0.1123535613466074,0.9938233310975839,0
7.379928000000006,-2.7813659205315,-5.211907611044406,-0.9631415855467507,0.49763668955428947,0.34413735676184143,0.793733596210799,0
7.389928000000006,-2.2054279492805677,-4.30357809250615,-1.001138414253877,0.4704527069398011,0.6242497911771352,0.6559066126517454,0
7.399928000000006,-1.498144715534622,-4.0426337287910314,-0.5906843554489709,0.6896237270427295,0.6678842595408763,0.710898981069679,0
7.409928000000006,-0.7498369349030539,-4.286709060247433,0.15430499634959516,1.1419862598611297,0.6516098215784859,0.9385444122073628,0
7.419928000000006,-0.21670211900297512,-4.798178718415044,0.9588551527781821,1.6740643568285138,0.6552154302205045,1.2428351765001007,0
7.4299280000000065,0.18759726473403968,-5.646017479846308,2.026357288298881,2.1539624961059802,0.6050060581286427,1.5383170095968752,0
7.439928000000006,0.41330224737584603,-6.991834102910806,3.311166268904259,2.4597879914913543,0.3665865352087331,1.739020263235004,0
7.449928000000006,0.2374521196594781,-8.691221721210283,4.791723153677866,2.4146105021687525,-0.05079455519734494,1.792537226551149,0
7.459928000000006,-0.45166572698750385,-10.28136593356655,5.864700979740466,1.9418236910948268,-0.3990935879812575,1.7076740813883313,0
7.469928000000006,-1.4841623983708099,-11.389976422801789,5.770277979791887,1.2307897597374469,-0.5250866434086501,1.493835219644809,0
7.479928000000006,-2.4025217912581556,-12.10980856170105,5.180042433870103,0.5137831371447232,-0.47006520737635044,1.1881761565293412,0
7.489928000000006,-2.9130687332448715,-12.291322098866411,4.190359546971962,-0.0819076686155375,-0.2232470187796842,0.8767877799167735,0
7.499928000000006,-2.934299153853387,-11.755496547950914,2.516381685681562,-0.47544960365727484,0.07259129181826994,0.5913812957837676,0
7.509928000000007,-2.581532728282908,-10.941699827281061,1.014352236926059,-0.6288527965360605,0.18490668483463044,0.3736048810562753,0
7.519928000000006,-2.0457309078744306,-10.152180488428508,-0.1483495434085946,-0.5256945568696021,-0.004998067109178883,0.31268980398612367,0
7.529928000000006,-1.5439442738697642,-9.62133479835238,-1.0541863934929636,-0.20878679613633327,-0.40113240607792205,0.41172284582716223,0
7.539928000000006,-1.265852960614548,-9.442327016419583,-1.6112726197530143,0.19811770969780135,-0.7468235497868612,0.5650140036174092,0
7.549928000000006,-1.2154064790048498,-9.63914417873261,-2.219531962782432,0.5411637397764189,-0.7766549702909554,0.6459258707184987,0
7.559928000000006,-1.6160819816699685,-9.916828128847403,-2.9111801065002636,0.6979835534649365,-0.411896085758496,0.6531819812633125,0
7.569928000000006,-2.503789932951305,-9.855948684095315,-3.1992785382482505,0.6596836548741625,0.19561757628292728,0.630521115568194,0
7.579928000000006,-3.375960046008335,-9.534680223776299,-2.6271203581320943,0.547814165531843,0.8121548829672764,0.5427133717403815,0
7.589928000000007,-3.6882731993359377,-9.33358623746305,-1.2690999897554123,0.4874164253301186,1.236371382679451,0.3466354159713265,0
7.5999280000000065,-3.623946985972257,-9.30821036859525,0.26178497188800204,0.5130588398075823,1.3548675199905713,0.0639322688507154,0
7.609928000000006,-3.4348576981574017,-9.341599069879525,1.5391158877260118,0.5826369439537739,1.1682672221447126,-0.20050059589548758,0
7.619928000000006,-2.9470233690235426,-9.241116343460734,2.3317648140370664,0.6467367654335483,0.8251581574449813,-0.3082905946249513,0
7.629928000000006,-2.088647845420126,-8.953743852297606,2.3935149879028566,0.6812311359203798,0.4990057369404516,-0.25089524758531384,0
7.6399280000000065,-1.2440430557498585,-8.74271913660929,1.8051113325698487,0.671930343663886,0.2846809644854948,-0.14191988603524014,0
7.649928000000006,-0.6302128843774375,-8.813246356317215,0.9593618299506508,0.6269505516692457,0.22160582615943192,-0.05647967235967739,0
7.659928000000006,-0.20842750330211823,-9.100507630033498,0.053872477870466035,0.5761394354898886,0.3016085818520475,-0.003291341834314152,0
7.669928000000007,0.07586281579581301,-9.42241505108752,-0.7379690588644057,0.5483102851199372,0.4545771504707113,0.03317724736215742,0
7.6799280000000065,0.23639632032079158,-9.599504281032244,-1.1717365472339405,0.5598085640078748,0.5891966004304441,0.05720386888527471,0
7.689928000000006,0.27576027781802775,-9.591993476176905,-1.1172178546715907,0.6043727488981501,0.649359504227965,0.07816613688696747,0
7.699928000000006,0.20200592753943097,-9.464727852914615,-0.7146299148636364,0.6607749350993122,0.6413092374196803,0.09919700129549659,0
7.709928000000006,0.03222631985205279,-9.262597505846108,-0.256892215992785,0.7073449606288966,0.5885738135602272,0.11994112915289834,0
7.719928000000007,-0.21026894988597167,-9.028794219156925,0.09494450660921197,0.7336948822122978,0.5138624547113898,0.14725390154395834,0
7.729928000000006,-0.5016450334776101,-8.826811821630756,0.2847343361393336,0.7415422936825267,0.4365409902230662,0.1795785761567651,0
7.739928000000006,-0.7871383633890041,-8.681405735677938,0.297413330384603,0.7349010379501816,0.36893451810694056,0.2178757599029383,0
7.749928000000007,-1.0345530616564522,-8.604452069106747,0.2285284597707892,0.7263891946847346,0.3403319186611549,0.26342926075110235,0
7.759928000000007,-1.236376887835281,-8.548005665782986,0.05904772753251841,0.7357449854864472,0.3791855416640397,0.30960339160521266,0
7.769928000000006,-1.3529666691558941,-8.60269414005231,-0.29367147860780735,0.7693050034161693,0.44375071324400733,0.3436799179508199,0
7.779928000000006,-1.3304221635921218,-8.81927366453288,-0.4446970349646878,0.8139359365022265,0.4763981210790388,0.3713049334959799,0
7.789928000000006,-1.277608285888601,-9.04279825198649,-0.3580219445669375,0.8549515349954797,0.48791435125098187,0.4020319328972256,0
7.799928000000007,-1.2322119704105068,-9.24734446422141,-0.2153173138067047,0.8842803673481863,0.5204509429847092,0.4326812271668415,0
7.809928000000006,-1.2232484657936424,-9.527515133542229,-0.11305005625057594,0.8918851772837766,0.5783627980510585,0.45944306694134734,0
7.819928000000006,-1.302696615067304,-9.875308902068282,0.021282815742744696,0.8839793338169329,0.6436009841637115,0.48461214103950684,0
7.829928000000007,-1.4817906215543766,-10.237144522750182,0.1803538322643208,0.8712962262339053,0.6988828084022893,0.5126498484765355,0
7.839928000000007,-1.648599983003368,-10.526254777708289,0.28277253797418117,0.8605338625702358,0.741548092773445,0.5463781005042799,0
7.8499280000000065,-1.6590845608019955,-10.7098935194896,0.29751234768212564,0.8547229172918159,0.760433940654048,0.5818092785305341,0
7.859928000000006,-1.343263808599135,-10.921001181680918,0.48603611719802947,0.8341602946819848,0.7076802179515415,0.6040865684638871,0
7.869928000000006,-0.707521238146295,-11.174112651241515,0.8219252597572692,0.7681690997110214,0.5363943636423433,0.5869688847273005,0
7.879928000000007,0.11983935399470994,-11.584408282728935,1.1985458870749646,0.6519198117480743,0.30830958520487217,0.5151610361115373,0
7.8899280000000065,0.9268180411283243,-12.046629289257607,1.2220696352758724,0.5117550462376202,0.15741431940296183,0.4032300712083646,0
7.899928000000006,1.6242920763952498,-12.248157937336789,0.7450972645189564,0.38597882165855335,0.16590192707019216,0.2785262735675046,0
7.909928000000007,2.035059891215454,-12.216806043284059,0.16848052942818253,0.3065277723972557,0.28182539721853794,0.16403539828487046,0
7.919928000000007,2.040156707902751,-11.95999412824749,0.12867696416752739,0.2648969321248493,0.2746750848631299,0.08882701874292696,0
7.9299280000000065,2.052978313345792,-11.598836730770996,0.3810924633625391,0.23024760031120714,0.09636397225106531,0.07514975734731191,0
7.939928000000006,1.9668573076074463,-11.492737680891064,0.8022756456590299,0.18924393924481608,-0.09286710487557114,0.0819019340438972,0
7.949928000000006,1.282753057700454,-11.771634952664268,1.479129897210032,0.1276440279627828,-0.19977958115411884,0.04249054727392368,0
7.959928000000007,0.2903615734596517,-12.133401241893209,1.5429753129553376,0.02223890413991269,-0.2099371479175496,-0.056711319079264355,0
7.969928000000007,-0.655934080639291,-12.504483280531415,1.7189864819802514,-0.14186532664487989,-0.17122111263453774,-0.18485996137758945,0
7.979928000000006,-1.5866569008401126,-12.547216915359655,1.7283652144036858,-0.3439469790683848,-0.08319423006135515,-0.3097492169186192,0
7.989928000000007,-2.2796280732211027,-12.313839918780237,1.3616797141876442,-0.5418680689047639,0.044197747070319725,-0.42151506506893327,0
7.999928000000007,-2.7378649202294825,-12.071803427519377,1.1051762700270067,-0.6990584294055003,0.15671950211943578,-0.5246142914315743,0
8.009928000000007,-2.907479127167862,-11.656235607437555,1.1318879860955127,-0.7960314929632548,0.2327675377983069,-0.6113234833839966,0
8.019928000000007,-3.015367712338881,-11.06869938802382,1.225400848399574,-0.8560180004738402,0.30760063493636713,-0.6563020918003977,0
8.029928000000007,-3.0992829634393244,-10.274324462593631,1.3862159102663099,-0.9241194366293553,0.4140118618237537,-0.6540934270707592,0
8.039928000000007,-3.2161199912865177,-9.371730411108992,1.4191651628717212,-1.054426352631513,0.5457188056214485,-0.6264023689942023,0
8.049928000000007,-3.4251464220805947,-8.418679209458855,1.3774163686625704,-1.2644427807192145,0.6708193215745581,-0.6014322681775878,0
8.059928000000006,-3.742650703383784,-7.664597915965033,1.389844990727785,-1.5261334783844882,0.7880543512870175,-0.5848905683381131,0
8.069928000000008,-4.10198723524163,-7.070413527306163,1.4542758674135674,-1.7872679323596714,0.9289264369849572,-0.5536287149281823,0
8.079928000000008,-4.499193020902145,-6.514740743090158,1.278456849024584,-1.996479827627604,1.1113952659338233,-0.4779892227252205,0
8.089928000000008,-4.945860750019515,-6.2478675542686375,1.050615219204903,-2.13478861596689,1.3090277586833197,-0.37831470193781236,0
8.099928000000007,-5.3345728965754855,-7.0581901533935865,0.7071440307779624,-2.213276596691922,1.505430921378477,-0.3192507151213128,0
8.109928000000007,-5.425519230240822,-8.520040657377612,0.3663189156385291,-2.254001888589413,1.6772706417114054,-0.3404933770898456,0
8.119928000000007,-5.346761323362772,-9.59097220427266,0.10406350272736986,-2.2732548888816155,1.8377145471986447,-0.4376725937943892,0
8.129928000000007,-5.183002190730251,-10.14120981644521,-0.10696110412013075,-2.256587998940504,1.9724769765860688,-0.5966463458401633,0
8.139928000000006,-5.053544679065461,-10.428398819593047,-0.09399215684554621,-2.1730986791998497,2.0370543830716157,-0.8125811290790117,0
8.149928000000008,-4.996191886119041,-10.902583828321774,0.07746007048961748,-2.032827992831652,1.9900059267161438,-1.1004789851061427,0
8.159928000000008,-4.8634301227230505,-11.827515360287347,0.0728232122540021,-1.8812755790769655,1.7949049313541128,-1.4741008864722884,0
8.169928000000008,-4.504218984417822,-12.887076656964387,-0.13791123865255794,-1.751885375739712,1.4112582905303253,-1.884592441489158,0
8.179928000000007,-3.7506995201480775,-13.471748809656553,-0.4013800992230733,-1.6604554501624567,0.8794712417144567,-2.239089417841169,0
8.189928000000007,-2.987076145729998,-13.464795010560488,-0.923029833717386,-1.6283194544995865,0.36771937802025795,-2.4692639026091916,0
8.199928000000007,-2.32894740660492,-13.010511866333085,-1.6795880346520335,-1.6543207511917224,-0.020457296793253754,-2.5940846494450547,0
8.209928000000007,-1.4790669705083968,-12.120241020896392,-2.3198498424568523,-1.7018097120437563,-0.3251398043207172,-2.7040227118976814,0
8.219928000000008,-0.46815999093041893,-10.99313866529031,-2.5027030106112,-1.741438124927645,-0.6108002833950393,-2.8511291915998727,0
8.229928000000008,0.31498007155046553,-9.829988873740778,-2.515118622468875,-1.7473536181920761,-0.838456559204834,-2.986165238113656,0
8.239928000000008,0.8801879899659552,-8.771635424072104,-2.6445536923576882,-1.6970093830641246,-1.0092795876926883,-3.0754308321806896,0
8.249928000000008,1.3580539787991615,-7.993121634552155,-2.569253575837624,-1.6166145206653728,-1.2443527787370514,-3.153355786021312,0
8.259928000000007,1.7286855359188922,-7.642219906474923,-2.2044628905034855,-1.5345609533319975,-1.5955106436694613,-3.229560902547779,0
8.269928000000007,2.0206426250336604,-7.435331515083357,-1.8153599343774003,-1.4363358229679828,-1.9661950546114886,-3.2600028058445822,0
8.279928000000007,2.3206826068874475,-7.31046241093294,-1.7423949057149595,-1.3018627456522829,-2.2362744254429363,-3.207116228276176,0
8.289928000000009,2.681415529958842,-7.150690470462781,-2.1643009883197095,-1.12678800756845,-2.304574798270595,-3.051333016096312,0
8.299928000000008,3.1228058193973407,-6.926472338446258,-3.04669177724505,-0.9101048395257163,-2.1824727088403626,-2.8106134689909372,0
8.309928000000008,3.613779363244958,-6.643348005032875,-3.902551304256331,-0.6619020968082984,-2.0023990993158924,-2.506761952256617,0
8.319928000000008,4.0284189601194775,-6.265046746744282,-4.338591925385453,-0.42034799160076297,-1.8615661932362182,-2.145124877258193,0
8.329928000000008,4.247933555858872,-5.828657616888573,-4.409867581436457,-0.21558080610069516,-1.7536202062459787,-1.7254379361068528,0
8.339928000000008,4.3104960966764585,-5.458869714257914,-4.217566846076388,-0.06737913234790818,-1.6787868240864914,-1.2594654973916115,0
8.349928000000007,4.233198922179837,-5.137771476839407,-3.880976554570705,0.03131106438450322,-1.6091685920947336,-0.7760260432014188,0
8.359928000000007,3.9055303571255786,-4.824759321009989,-3.651836229253493,0.10886239598952796,-1.446550792701475,-0.35678671510803817,0
8.369928000000007,2.9365763229070887,-4.727204016112199,-3.6835324872489292,0.1997184742255952,-1.1620110903630168,-0.046977830550034586,0
8.379928000000008,2.120887935183944,-4.458505196128861,-3.6853261762422744,0.30276489283307295,-0.8715223898573217,0.2004304225718616,0
8.389928000000008,1.5227747381270311,-4.110513159713578,-3.405943316740179,0.4187994190026608,-0.6753346019778783,0.3773064107098884,0
8.399928000000008,0.9683567601552396,-3.9038366510035627,-3.162180007045845,0.5532420363648951,-0.5710809729622159,0.4745770354392363,0
8.409928000000008,0.48022441118662473,-3.968406380704865,-3.1667721440442262,0.6978444339686953,-0.5357408498831797,0.4798810119821262,0
8.419928000000008,0.07836087863369479,-4.367909642823754,-3.3222271899761715,0.8335113575765943,-0.5513392093505214,0.3953731332139716,0
8.429928000000007,-0.15302254867733905,-5.100953751109333,-3.4957303759230784,0.9488997865591139,-0.5917710001923903,0.270500184644464,0
8.439928000000007,-0.08506458885385433,-6.045758917696816,-3.5027155800098457,1.0276981412373336,-0.6987175999264488,0.1494820390741931,0
8.449928000000009,0.4007348405894482,-6.983302673315805,-3.4252344747917514,1.0739223363480384,-0.8875180729534522,0.09105894256413366,0
8.459928000000009,1.2871439362919148,-7.824173305741013,-3.4252984890216616,1.1129133375119133,-1.0573599271955296,0.10964601652610433,0
8.469928000000008,2.228070911378515,-8.671402585455601,-3.7077189377280226,1.1650408326775308,-1.0749968818674953,0.16183220746307794,0
8.479928000000008,3.030354036309405,-9.527513752749961,-4.262977305364415,1.2399316532308462,-0.8633854684581069,0.2490386778979944,0
8.489928000000008,3.6667885633778514,-10.394359046732767,-4.721671012754078,1.3023026604769283,-0.5580219719846355,0.33766944547686817,0
8.499928000000008,4.098746257773634,-11.274851913595748,-4.782952529369022,1.2988519707091186,-0.3516282575763785,0.3970935421197392,0
8.509928000000007,4.261581841499068,-12.04244447164655,-4.579863678813119,1.21541818432417,-0.3224832913048032,0.436019405689512,0
8.519928000000007,4.101068214119059,-12.543838133563247,-4.323230385698479,1.0102518400340488,-0.5304178274842788,0.39708183627237625,0
8.529928000000007,3.621184116551719,-12.69456254967063,-4.056079228953202,0.6888413139939197,-0.910358403723646,0.22696121432109354,0
8.539928000000009,2.938168416373982,-12.516017701800072,-4.162877777530863,0.3286364093328528,-1.2717876572696116,-0.041601917757816215,0
8.549928000000008,2.33780113344321,-12.073930397377344,-4.837591901254439,0.006775357976217478,-1.472737305463672,-0.34872398383767833,0
8.559928000000008,1.9974935698051353,-11.44938270048654,-6.399312359950596,-0.20009693023732925,-1.4197815929819675,-0.5701990869676119,0
8.569928000000008,2.1331655821030067,-11.753330690898546,-9.47763114038901,-0.009954455372424661,-0.9556818334402877,-0.5632946974156915,0
8.579928000000008,2.8150607744921237,-13.296384911381313,-10.457476605383443,0.44067014292694806,-0.21570738630517824,-0.3481172820367207,0
8.589928000000008,3.4033536051782134,-13.952897523422546,-8.706427991469388,0.7863879697375739,0.4989297979745131,-0.0369971262375115,0
8.599928000000007,3.1565311988235836,-13.666731419994953,-6.068903619418182,0.9974388888732163,0.9817788570378023,0.3252242989610624,0
8.609928000000009,2.2501769998583288,-12.853434311488078,-3.284147559276232,1.1450759392615941,0.9670357025686402,0.7296684298087587,0
8.619928000000009,0.9562317137818419,-12.046312333971606,-1.0465119039779378,1.3489814854614972,0.5248938480486565,1.1323112627611036,0
8.629928000000008,-0.4820211104808678,-11.272871465935335,0.32452052836060696,1.561242926599156,0.004881985296612476,1.4453319873533554,0
8.639928000000008,-1.6166659258906138,-10.370177744536806,0.7779395795551831,1.60236148697636,-0.30367574640303524,1.6177826894864544,0
8.649928000000008,-2.3004233565170984,-9.276831471461568,0.7141209340247053,1.415782067767756,-0.3717533232417469,1.6612713993100834,0
8.659928000000008,-2.6135998578664905,-8.035195460806785,0.5375508530675062,1.081748025874528,-0.2463095073262425,1.592593580415393,0
8.669928000000008,-2.5952800717839284,-6.879622415722298,0.5568998292165804,0.7348596656398347,-0.0678734539772087,1.3979116579293298,0
8.679928000000007,-2.3337194882162526,-5.97274671183322,0.6288772816788102,0.493761508795322,0.2070822596234299,1.1320423631512433,0
8.689928000000007,-2.0216174278930796,-5.44159948184192,0.5684713227183068,0.4165726081852893,0.5064072711681238,0.8706463078562513,0
8.699928000000009,-1.5044350591583515,-5.2033478398123885,0.7025061814318896,0.5777218378381,0.6223208525276974,0.7284206256421272,0
8.709928000000009,-0.6791555479111028,-5.010500785233397,1.2147125192096766,0.9394086497680472,0.5892045466653053,0.8131433492491515,0
8.719928000000008,0.2769418566298923,-4.9206400676619895,1.9189957648426406,1.3972390559267915,0.5368423963568689,1.063424081863854,0
8.729928000000008,1.0921998256959535,-5.2451206722276265,2.5495607945867067,1.8228760324343691,0.43247273441829437,1.3485271375805943,0
8.739928000000008,1.607258972653402,-6.045144892789001,3.3125351032602546,2.079034007627227,0.20653744136045538,1.598393332288592,0
8.749928000000008,1.7953827300213565,-7.2741396896264785,4.179562259521058,2.033797461080985,-0.11594108438757672,1.7463356492182418,0
8.759928000000007,1.3586763098782013,-9.088884639852148,4.644797543697384,1.7556435259580552,-0.5107208330415789,1.7531254203442186,0
8.769928000000009,0.27069895360595686,-10.756159148792044,4.552141693528347,1.367919758781378,-0.7609383357503784,1.6361488508248294,0
8.779928000000009,-0.932149208759159,-11.647415989329488,3.942409953260269,0.9034373765475138,-0.6624607613712895,1.5041073008592174,0
8.789928000000009,-1.6956955653568062,-11.89733599126435,2.739026068200709,0.42540920190549114,-0.362614733359278,1.3960437249149358,0
8.799928000000008,-1.9831073543334468,-11.93015681789169,1.4220671787941477,0.05284344342298698,-0.08582832326876913,1.2155959562104637,0
8.809928000000008,-2.0170315264788665,-11.78134223940096,0.35382127174634315,-0.13697855442834064,-0.03449766654114287,0.9943794045112164,0
8.819928000000008,-2.069248171257843,-11.207878564442897,-0.680586233632348,-0.11821985622819024,-0.13338121944881023,0.864252759827804,0
8.829928000000008,-2.146698683663832,-10.651954565643031,-1.4617523939814494,0.08518236375676554,-0.4074547789592284,0.7919896090756076,0
8.839928000000008,-2.204924729827557,-10.539670994539396,-1.797588774849778,0.33810061696409277,-0.6725756137511256,0.6835304361238378,0
8.849928000000007,-2.204868909893187,-10.598664749079333,-2.1509308064848405,0.5006615285005245,-0.6828031875594235,0.522442862103113,0
8.859928000000009,-2.5216628682608864,-10.236651087818911,-2.70467042362594,0.4858544328162432,-0.3156548395906588,0.4202904491204573,0
8.869928000000009,-3.1322959886618986,-9.6869448658435,-2.900860097926927,0.34700776752848983,0.2459329055314635,0.3636852090187156,0
8.879928000000008,-3.4440394653242974,-9.398914462005601,-2.114187967177442,0.2409378730267383,0.7322796453705196,0.23735059243381032,0
8.889928000000008,-3.3875090498883274,-9.339492493924297,-0.5639933488507649,0.25207452488884324,0.9981678878854472,0.015326161447104171,0
8.899928000000008,-3.154776197481701,-9.348971054140888,0.9744823599184044,0.3702677378390346,1.018107681823482,-0.2388931925333106,0
8.909928000000008,-2.706442600258198,-9.228293960312236,2.085404552002575,0.5524628930674693,0.8130100105555015,-0.39256469398628446,0
8.919928000000008,-1.970359466050669,-8.767563754053038,2.5689024985593987,0.7408085784979518,0.5413880387733606,-0.3617765562266059,0
8.92992800000001,-1.1395789112838275,-8.265829230995905,2.4089239623448546,0.8772992922589739,0.2592476791430546,-0.22817652908011277,0
8.939928000000009,-0.43966896807993505,-8.099173167206171,1.892907220126797,0.9228039393157738,0.0318114179704872,-0.10694774723206461,0
